X[s],"Trigno IM sensor 11: EMG 11 (IM)",X[s],"Trigno IM sensor 11: ACC X 11 (IM)",X[s],"Trigno IM sensor 11: ACC Y 11 (IM)",X[s],"Trigno IM sensor 11: ACC Z 11 (IM)",X[s],"Trigno IM sensor 11: Gyro X 11 (IM)",X[s],"Trigno IM sensor 11: Gyro Y 11 (IM)",X[s],"Trigno IM sensor 11: Gyro Z 11 (IM)",X[s],"Trigno IM sensor 11: Mag X 11 (IM)",X[s],"Trigno IM sensor 11: Mag Y 11 (IM)",X[s],"Trigno IM sensor 11: Mag Z 11 (IM)",X[s],"Trigno IM sensor 15: EMG 15 (IM)",X[s],"Trigno IM sensor 15: ACC X 15 (IM)",X[s],"Trigno IM sensor 15: ACC Y 15 (IM)",X[s],"Trigno IM sensor 15: ACC Z 15 (IM)",X[s],"Trigno IM sensor 15: Gyro X 15 (IM)",X[s],"Trigno IM sensor 15: Gyro Y 15 (IM)",X[s],"Trigno IM sensor 15: Gyro Z 15 (IM)",X[s],"Trigno IM sensor 15: Mag X 15 (IM)",X[s],"Trigno IM sensor 15: Mag Y 15 (IM)",X[s],"Trigno IM sensor 15: Mag Z 15 (IM)"
0.000000,0,0.000000,0,0.000000,0,0.000000,0,0.000000,0,0.000000,0,0.000000,0,0.000000,0,0.000000,0,0.000000,0,0.000000,0,0.000000,0,0.000000,0,0.000000,0,0.000000,0,0.000000,0,0.000000,0,0.000000,0,0.000000,0,0.000000,0
0.0009,0,0.00675,0,0.00675,0,0.00675,0,0.00675,0,0.00675,0,0.00675,0,0.0135,0,0.0135,0,0.0135,0,0.0009,0,0.00675,0,0.00675,0,0.00675,0,0.00675,0,0.00675,0,0.00675,0,0.0135,0,0.0135,0,0.0135,0
0.0018,0,0.0135,0,0.0135,0,0.0135,0,0.0135,0,0.0135,0,0.0135,0,0.027,0,0.027,0,0.027,0,0.0018,0,0.0135,0,0.0135,0,0.0135,0,0.0135,0,0.0135,0,0.0135,0,0.027,0,0.027,0,0.027,0
0.0027,0,0.02025,0,0.02025,0,0.02025,0,0.02025,0,0.02025,0,0.02025,0,0.0405,-37.8,0.0405,-124.4,0.0405,24.7,0.0027,0,0.02025,0,0.02025,0,0.02025,0,0.02025,0,0.02025,0,0.02025,0,0.0405,11.1,0.0405,30.8,0.0405,-281.5
0.0036,0,0.027,0,0.027,0,0.027,0,0.027,0,0.027,0,0.027,0,0.054,-38.3,0.054,-124.4,0.054,25.1,0.0036,0,0.027,0,0.027,0,0.027,0,0.027,0,0.027,0,0.027,0,0.054,11.9,0.054,30,0.054,-281.7
0.0045,0,0.03375,0,0.03375,0,0.03375,0,0.03375,0,0.03375,0,0.03375,0,0.0675,-39,0.0675,-124.8,0.0675,24.2,0.0045,0,0.03375,0,0.03375,0,0.03375,0,0.03375,0,0.03375,0,0.03375,0,0.0675,11.7,0.0675,30.2,0.0675,-282.6
0.0054,0,0.0405,-0.2460938,0.0405,-0.7988281,0.0405,-0.3115234,0.0405,-23.51145,0.0405,-4.114504,0.0405,16.0916,0.081,-39.5,0.081,-124.3,0.081,24.3,0.0054,0,0.0405,1.010498,0.0405,-0.5212402,0.0405,-0.376709,0.0405,0.3358779,0.0405,-70.24428,0.0405,-66.92367,0.081,12,0.081,29.5,0.081,-283.5
0.0063,0,0.04725,-0.3381348,0.04725,-0.8190918,0.04725,-0.270752,0.04725,-27.52672,0.04725,-14.63359,0.04725,20.45802,0.0945,-39.9,0.0945,-124.4,0.0945,23.7,0.0063,0,0.04725,1.082031,0.04725,-0.4543457,0.04725,-0.7246094,0.04725,-0.8244275,0.04725,-47.25954,0.04725,-62.12214,0.0945,11.9,0.0945,29,0.0945,-282.8
0.0072,0,0.054,-0.3464355,0.054,-0.8530273,0.054,-0.2209473,0.054,-27.45038,0.054,-23.9771,0.054,24.37405,0.108,-40.9,0.108,-124.7,0.108,23.5,0.0072,0,0.054,1.103516,0.054,-0.4099121,0.054,-0.8378906,0.054,-23.67939,0.054,11.87786,0.054,-58.29771,0.108,12.5,0.108,29.5,0.108,-283.8
0.0081,0,0.06075,-0.3479004,0.06075,-0.8857422,0.06075,-0.1828613,0.06075,-25.60305,0.06075,-17.13741,0.06075,28.10687,0.1215,-41.7,0.1215,-124.7,0.1215,24,0.0081,0,0.06075,0.9858398,0.06075,-0.4052734,0.06075,-0.642334,0.06075,-42.64122,0.06075,70.05344,0.06075,-53.61832,0.1215,13.6,0.1215,30,0.1215,-284.2
0.009000001,0,0.0675,-0.2844238,0.0675,-0.8830566,0.0675,-0.282959,0.0675,-22.08397,0.0675,-17.31298,0.0675,29.28244,0.135,-42.2,0.135,-125,0.135,23.6,0.009000001,0,0.0675,0.8098145,0.0675,-0.4328613,0.0675,-0.2685547,0.0675,-42.12977,0.0675,95.27481,0.0675,-45.66412,0.135,13.7,0.135,31.1,0.135,-284.8
0.0099,0,0.07425,-0.2648926,0.07425,-0.8476563,0.07425,-0.3154297,0.07425,-20.83206,0.07425,-23.98473,0.07425,31.20611,0.1485,-43.1,0.1485,-125.3,0.1485,23.5,0.0099,0,0.07425,0.6359863,0.07425,-0.4350586,0.07425,-0.05688477,0.07425,-31.82443,0.07425,81.09161,0.07425,-37.26717,0.1485,14.3,0.1485,31.2,0.1485,-285.9
0.0108,0,0.081,-0.2473145,0.081,-0.8295898,0.081,-0.2800293,0.081,-21.92366,0.081,-23.44275,0.081,32.45038,0.162,-43.5,0.162,-125,0.162,23.9,0.0108,0,0.081,0.3603516,0.081,-0.4467773,0.081,-0.1025391,0.081,-13.33588,0.081,51.0458,0.081,-21.16031,0.162,15.8,0.162,33.4,0.162,-285.6
0.0117,0,0.08775,-0.2504883,0.08775,-0.824707,0.08775,-0.2214355,0.08775,-22.86259,0.08775,-28.82443,0.08775,33.69466,0.1755,-44.5,0.1755,-124.8,0.1755,23.2,0.0117,0,0.08775,0.1591797,0.08775,-0.434082,0.08775,-0.2160645,0.08775,-6.137404,0.08775,41.42748,0.08775,2.068702,0.1755,16.7,0.1755,34.5,0.1755,-284.2
0.0126,0,0.0945,-0.197998,0.0945,-0.8371582,0.0945,-0.2226563,0.0945,-20.81679,0.0945,-37.17557,0.0945,34.14504,0.189,-45.1,0.189,-125.2,0.189,22.1,0.0126,0,0.0945,0.1020508,0.0945,-0.4172363,0.0945,-0.1337891,0.0945,-9.702291,0.0945,41.73283,0.0945,23.76336,0.189,17.5,0.189,35.9,0.189,-285.1
0.0135,0,0.10125,-0.1196289,0.10125,-0.8413086,0.10125,-0.2490234,0.10125,-22.09924,0.10125,-32.07634,0.10125,32.9313,0.2025,-45.9,0.2025,-124.8,0.2025,21.3,0.0135,0,0.10125,0.1315918,0.10125,-0.4003906,0.10125,0.08691406,0.10125,-13.12977,0.10125,35.78626,0.10125,45.24427,0.2025,18.2,0.2025,37.6,0.2025,-284.6
0.0144,0,0.108,-0.0534668,0.108,-0.8413086,0.108,-0.2663574,0.108,-19.81679,0.108,-29.70992,0.108,30.0687,0.216,-46.1,0.216,-124.8,0.216,21.1,0.0144,0,0.108,0.2570801,0.108,-0.3759766,0.108,0.2468262,0.108,-9.335877,0.108,13.78626,0.108,57.9771,0.216,19.2,0.216,38.5,0.216,-283.6
0.0153,0,0.11475,-0.08203125,0.11475,-0.8259277,0.11475,-0.2680664,0.11475,-17.16794,0.11475,-20.55725,0.11475,29.64886,0.2295,-46.5,0.2295,-124.9,0.2295,21.9,0.0153,0,0.11475,0.4023438,0.11475,-0.3913574,0.11475,0.1845703,0.11475,-2.022901,0.11475,-13.83969,0.11475,64.28244,0.2295,20.2,0.2295,40.8,0.2295,-283.7
0.0162,0,0.1215,-0.142334,0.1215,-0.7807617,0.1215,-0.2910156,0.1215,-18.36641,0.1215,-9.633588,0.1215,30.24427,0.243,-47.4,0.243,-124.9,0.243,21.3,0.0162,0,0.1215,0.5039063,0.1215,-0.4418945,0.1215,0.06225586,0.1215,1.381679,0.1215,-15.01527,0.1215,67.10687,0.243,21.4,0.243,41.7,0.243,-283.9
0.0171,0,0.12825,-0.1972656,0.12825,-0.7463379,0.12825,-0.3203125,0.12825,-17.68702,0.12825,-8.022901,0.12825,31.61832,0.2565,-48.3,0.2565,-125,0.2565,20.9,0.0171,0,0.12825,0.5771484,0.12825,-0.5036621,0.12825,-0.01879883,0.12825,-3.061069,0.12825,2.89313,0.12825,70.9313,0.2565,23.6,0.2565,43.3,0.2565,-281.2
0.018,0,0.135,-0.2678223,0.135,-0.7443848,0.135,-0.2800293,0.135,-18.35878,0.135,-0.9312977,0.135,33.85496,0.27,-49,0.27,-125.4,0.27,22.4,0.018,0,0.135,0.578125,0.135,-0.5649414,0.135,0.003173828,0.135,-7.61832,0.135,26.66412,0.135,78.35114,0.27,25,0.27,44.3,0.27,-280.8
0.0189,0,0.14175,-0.3088379,0.14175,-0.734375,0.14175,-0.2629395,0.14175,-17.22137,0.14175,-3.038168,0.14175,35.36641,0.2835,-49.5,0.2835,-124.3,0.2835,22.3,0.0189,0,0.14175,0.5021973,0.14175,-0.6103516,0.14175,0.157959,0.14175,-7.793893,0.14175,44.24427,0.14175,90.0687,0.2835,28.5,0.2835,46.1,0.2835,-280.7
0.0198,0,0.1485,-0.328125,0.1485,-0.7529297,0.1485,-0.2905273,0.1485,-12.71756,0.1485,-2.80916,0.1485,35.60305,0.297,-50.3,0.297,-124.9,0.297,20.1,0.0198,0,0.1485,0.4165039,0.1485,-0.6293945,0.1485,0.2341309,0.1485,-3.671756,0.1485,36.83206,0.1485,100.8779,0.297,29.6,0.297,46.4,0.297,-280.5
0.0207,0,0.15525,-0.3291016,0.15525,-0.7565918,0.15525,-0.293457,0.15525,-12.37405,0.15525,1.549618,0.15525,34.43512,0.3105,-50.5,0.3105,-124.3,0.3105,20.6,0.0207,0,0.15525,0.2954102,0.15525,-0.6376953,0.15525,0.2336426,0.15525,7.076336,0.15525,5.396946,0.15525,113.7099,0.3105,31.5,0.3105,47,0.3105,-280.3
0.0216,0,0.162,-0.3708496,0.162,-0.7512207,0.162,-0.2687988,0.162,-10.25954,0.162,3.167939,0.162,33.28244,0.324,-51.5,0.324,-124.7,0.324,19.4,0.0216,0,0.162,0.2285156,0.162,-0.6220703,0.162,0.2248535,0.162,17.8855,0.162,-25.1145,0.162,123.6718,0.324,33.5,0.324,48.1,0.324,-279.5
0.0225,0,0.16875,-0.3659668,0.16875,-0.7436523,0.16875,-0.3432617,0.16875,-8.40458,0.16875,7.961832,0.16875,32.48855,0.3375,-51.4,0.3375,-124.5,0.3375,20.9,0.0225,0,0.16875,0.2358398,0.16875,-0.6159668,0.16875,0.2072754,0.16875,23.18321,0.16875,-48.61832,0.16875,132.0534,0.3375,35.3,0.3375,48.9,0.3375,-279.3
0.0234,0,0.1755,-0.3886719,0.1755,-0.7536621,0.1755,-0.3444824,0.1755,-7.534351,0.1755,7.572519,0.1755,31.81679,0.351,-52,0.351,-124.4,0.351,19.6,0.0234,0,0.1755,0.2844238,0.1755,-0.6293945,0.1755,0.1687012,0.1755,27.0687,0.1755,-69.8855,0.1755,139.5114,0.351,37.2,0.351,48.7,0.351,-277.8
0.0243,0,0.18225,-0.4267578,0.18225,-0.7580566,0.18225,-0.3039551,0.18225,-5.343512,0.18225,3.083969,0.18225,30.96947,0.3645,-53,0.3645,-124.9,0.3645,20.1,0.0243,0,0.18225,0.3481445,0.18225,-0.6699219,0.18225,0.1047363,0.18225,32.49618,0.18225,-85.25191,0.18225,147.0611,0.3645,39.3,0.3645,49.5,0.3645,-277.6
0.0252,0,0.189,-0.4223633,0.189,-0.7556152,0.189,-0.3530273,0.189,-5.358778,0.189,-1.610687,0.189,30.25954,0.378,-54,0.378,-124.9,0.378,19.8,0.0252,0,0.189,0.4182129,0.189,-0.7246094,0.189,0.02661133,0.189,35.86259,0.189,-85.59542,0.189,154.626,0.378,41,0.378,49.8,0.378,-278.5
0.0261,0,0.19575,-0.4057617,0.19575,-0.762207,0.19575,-0.3300781,0.19575,-4.816794,0.19575,-7.259542,0.19575,28.82443,0.3915,-54.1,0.3915,-124.6,0.3915,18.1,0.0261,0,0.19575,0.4331055,0.19575,-0.7453613,0.19575,-0.0246582,0.19575,38.86259,0.19575,-77.0458,0.19575,161.9618,0.3915,42.3,0.3915,49.3,0.3915,-278.8
0.027,0,0.2025,-0.3598633,0.2025,-0.7641602,0.2025,-0.3046875,0.2025,-5.343512,0.2025,-7.694656,0.2025,26.34351,0.405,-55.2,0.405,-124.6,0.405,16.8,0.027,0,0.2025,0.4509277,0.2025,-0.7407227,0.2025,-0.03881836,0.2025,39.73283,0.2025,-67.93893,0.2025,169.5496,0.405,44.2,0.405,49.8,0.405,-276.6
0.0279,0,0.20925,-0.2597656,0.20925,-0.7805176,0.20925,-0.3693848,0.20925,-4.877862,0.20925,-7.183206,0.20925,22.69466,0.4185,-55.4,0.4185,-124.8,0.4185,17.5,0.0279,0,0.20925,0.4775391,0.20925,-0.7348633,0.20925,-0.01464844,0.20925,41.09924,0.20925,-66.77863,0.20925,178.2137,0.4185,45.2,0.4185,50.1,0.4185,-276.8
0.0288,0,0.216,-0.2592773,0.216,-0.8017578,0.216,-0.2536621,0.216,-1.290076,0.216,-3.175573,0.216,20.48855,0.432,-56.2,0.432,-124.1,0.432,16.8,0.0288,0,0.216,0.4838867,0.216,-0.7663574,0.216,0.008300781,0.216,44.74046,0.216,-73.64122,0.216,185.9542,0.432,46.9,0.432,50.2,0.432,-275.9
0.0297,0,0.22275,-0.2519531,0.22275,-0.7941895,0.22275,-0.3618164,0.22275,-2.21374,0.22275,3.740458,0.22275,19.74809,0.4455,-57.1,0.4455,-124.4,0.4455,16.6,0.0297,0,0.22275,0.4802246,0.22275,-0.8444824,0.22275,0.03710938,0.22275,50.48855,0.22275,-78.25954,0.22275,192.2061,0.4455,46.3,0.4455,50.4,0.4455,-274.4
0.0306,0,0.2295,-0.3012695,0.2295,-0.8000488,0.2295,-0.3583984,0.2295,-1.29771,0.2295,8.862596,0.2295,20.55725,0.459,-57.7,0.459,-123.4,0.459,16.1,0.0306,0,0.2295,0.4750977,0.2295,-0.9301758,0.2295,0.01782227,0.2295,55.64885,0.2295,-84.05344,0.2295,197.542,0.459,46,0.459,50.6,0.459,-273.8
0.0315,0,0.23625,-0.3916016,0.23625,-0.7895508,0.23625,-0.3017578,0.23625,-0.1603053,0.23625,12.59542,0.23625,21.81679,0.4725,-58.8,0.4725,-123,0.4725,15.7,0.0315,0,0.23625,0.5163574,0.23625,-1.015381,0.23625,-0.01708984,0.23625,62.9084,0.23625,-94.63359,0.23625,202.313,0.4725,44.7,0.4725,51.1,0.4725,-273.6
0.0324,0,0.243,-0.4433594,0.243,-0.795166,0.243,-0.2885742,0.243,-0.6564885,0.243,2.839695,0.243,23.35114,0.486,-60.6,0.486,-122,0.486,14.3,0.0324,0,0.243,0.5944824,0.243,-1.076172,0.243,-0.0456543,0.243,68.45802,0.243,-98.07633,0.243,205.145,0.486,43.4,0.486,50.6,0.486,-272.2
0.0333,0,0.24975,-0.4353027,0.24975,-0.7954102,0.24975,-0.3007813,0.24975,-2.244275,0.24975,-1.076336,0.24975,24.46565,0.4995,-61.6,0.4995,-121.1,0.4995,14.4,0.0333,0,0.24975,0.6853027,0.24975,-1.045898,0.24975,-0.0949707,0.24975,76.90839,0.24975,-95.28244,0.24975,207.1603,0.4995,43.4,0.4995,50.4,0.4995,-274.5
0.0342,0,0.2565,-0.3334961,0.2565,-0.7856445,0.2565,-0.3947754,0.2565,-4.633588,0.2565,0.1984733,0.2565,23.51908,0.513,-62.2,0.513,-121,0.513,13.6,0.0342,0,0.2565,0.7255859,0.2565,-1.018066,0.2565,-0.1191406,0.2565,80.14503,0.2565,-71.87023,0.2565,209.1985,0.513,43.1,0.513,50.5,0.513,-275.7
0.0351,0,0.26325,-0.298584,0.26325,-0.8027344,0.26325,-0.2670898,0.26325,-1.229008,0.26325,-4.61832,0.26325,22.29008,0.5265,-63.4,0.5265,-120.2,0.5265,12.9,0.0351,0,0.26325,0.7727051,0.26325,-0.9995117,0.26325,-0.06542969,0.26325,72.47328,0.26325,-48.22901,0.26325,210.8168,0.5265,40.9,0.5265,51.5,0.5265,-271.4
0.036,0,0.27,-0.3063965,0.27,-0.8244629,0.27,-0.2819824,0.27,-1.366412,0.27,-2.587786,0.27,22.25954,0.54,-64.1,0.54,-120.3,0.54,12.2,0.036,0,0.27,0.7705078,0.27,-0.9726563,0.27,-0.03173828,0.27,78.00764,0.27,-30.68702,0.27,210.2137,0.54,39.8,0.54,51.7,0.54,-271.4
0.0369,0,0.27675,-0.3256836,0.27675,-0.8166504,0.27675,-0.3237305,0.27675,-0.961832,0.27675,-3.450382,0.27675,23.1145,0.5535,-64.9,0.5535,-119.5,0.5535,13.2,0.0369,0,0.27675,0.7397461,0.27675,-0.9555664,0.27675,-0.04003906,0.27675,80.58015,0.27675,-10.21374,0.27675,210.1527,0.5535,39.1,0.5535,51.6,0.5535,-269.8
0.0378,0,0.2835,-0.3659668,0.2835,-0.7978516,0.2835,-0.2802734,0.2835,-0.7862595,0.2835,-1.061069,0.2835,23.68702,0.567,-65.4,0.567,-118.9,0.567,11.1,0.0378,0,0.2835,0.6904297,0.2835,-0.9367676,0.2835,-0.05688477,0.2835,78.19847,0.2835,2.251908,0.2835,210.6718,0.567,37.8,0.567,50.8,0.567,-269.8
0.0387,0,0.29025,-0.3198242,0.29025,-0.7929688,0.29025,-0.3520508,0.29025,-3.122137,0.29025,-7.534351,0.29025,23.45038,0.5805,-65.9,0.5805,-118.7,0.5805,10,0.0387,0,0.29025,0.6237793,0.29025,-0.9309082,0.29025,-0.06274414,0.29025,74.12977,0.29025,15.41985,0.29025,211.0916,0.5805,37.6,0.5805,51,0.5805,-269.5
0.0396,0,0.297,-0.2912598,0.297,-0.8410645,0.297,-0.2207031,0.297,-1.541985,0.297,-13.8855,0.297,22.32825,0.594,-68.7,0.594,-116.6,0.594,6.1,0.0396,0,0.297,0.545166,0.297,-0.9533691,0.297,-0.06469727,0.297,68.40458,0.297,18.72519,0.297,210.8931,0.594,36.7,0.594,50.8,0.594,-269.1
0.0405,-2.467384E-05,0.30375,-0.2294922,0.30375,-0.8625488,0.30375,-0.3137207,0.30375,-3.114504,0.30375,-12.94656,0.30375,20.72519,0.6075,-69,0.6075,-116.1,0.6075,4.6,0.0405,2.198825E-05,0.30375,0.4689941,0.30375,-0.9880371,0.30375,-0.046875,0.30375,64.19084,0.30375,13.30534,0.30375,210.542,0.6075,36.5,0.6075,51.1,0.6075,-270.8
0.0414,-3.843748E-05,0.3105,-0.1999512,0.3105,-0.8598633,0.3105,-0.3098145,0.3105,-1.717557,0.3105,-14.12214,0.3105,19.9313,0.621,-69.6,0.621,-115.6,0.621,3.2,0.0414,3.390555E-05,0.3105,0.4018555,0.3105,-1.037109,0.3105,-0.02197266,0.3105,62.92366,0.3105,5.412214,0.3105,210.3206,0.621,35.8,0.621,51.5,0.621,-270.6
0.0423,-2.265965E-05,0.31725,-0.232666,0.31725,-0.8513184,0.31725,-0.2617188,0.31725,-1.793893,0.31725,-8.854961,0.31725,19.77863,0.6345,-69.9,0.6345,-115.7,0.6345,4.3,0.0423,1.141375E-05,0.31725,0.3381348,0.31725,-1.089844,0.31725,-0.007568359,0.31725,64.70992,0.31725,-11.50382,0.31725,210.7176,0.6345,35.1,0.6345,50.3,0.6345,-270.7
0.0432,-6.042573E-06,0.324,-0.2502441,0.324,-0.8271484,0.324,-0.3657227,0.324,-3.969466,0.324,-5.61832,0.324,21.26718,0.648,-70.1,0.648,-114.5,0.648,5,0.0432,2.265965E-05,0.324,0.3034668,0.324,-1.12207,0.324,-0.003173828,0.324,69.80916,0.324,-34.41221,0.324,210.7557,0.648,33.4,0.648,50.5,0.648,-271.2
0.0441,2.970932E-05,0.33075,-0.3115234,0.33075,-0.8088379,0.33075,-0.2836914,0.33075,-2.282443,0.33075,-8.221375,0.33075,23.9084,0.6615,-70.4,0.6615,-113.6,0.6615,6.4,0.0441,2.467384E-05,0.33075,0.3115234,0.33075,-1.165527,0.33075,-0.01416016,0.33075,74.72519,0.33075,-56.03053,0.33075,210.7252,0.6615,33,0.6615,50.5,0.6615,-271
0.045,3.457694E-05,0.3375,-0.3330078,0.3375,-0.7990723,0.3375,-0.3225098,0.3375,-4.007634,0.3375,-13.35114,0.3375,26.03053,0.675,-70.3,0.675,-113.7,0.675,5.4,0.045,1.19173E-05,0.3375,0.3725586,0.3375,-1.209473,0.3375,-0.07836914,0.3375,80.63359,0.3375,-71.21374,0.3375,209.0458,0.675,32.1,0.675,50.6,0.675,-268.4
0.0459,1.493858E-05,0.34425,-0.3381348,0.34425,-0.8083496,0.34425,-0.2568359,0.34425,-4.366412,0.34425,-19.72519,0.34425,28.05343,0.6885,-69.8,0.6885,-114.9,0.6885,3.2,0.0459,1.443503E-05,0.34425,0.4299316,0.34425,-1.219238,0.34425,-0.08618164,0.34425,85.15267,0.34425,-78.33588,0.34425,205.8168,0.6885,31.9,0.6885,50.5,0.6885,-269.4
0.0468,1.409934E-05,0.351,-0.3000488,0.351,-0.8044434,0.351,-0.3391113,0.351,-5.458015,0.351,-19.96183,0.351,29.15267,0.702,-69.5,0.702,-114.7,0.702,4.3,0.0468,3.978027E-05,0.351,0.4702148,0.351,-1.131836,0.351,0.002929688,0.351,87.87023,0.351,-66.73283,0.351,202.5649,0.702,31.4,0.702,50.1,0.702,-268.7
0.0477,3.692683E-06,0.35775,-0.314209,0.35775,-0.838623,0.35775,-0.2644043,0.35775,-6.351145,0.35775,-26.9771,0.35775,30.98473,0.7155,-69.1,0.7155,-114.9,0.7155,3.3,0.0477,6.428627E-05,0.35775,0.5268555,0.35775,-1.115723,0.35775,0.008056641,0.35775,88.57252,0.35775,-55.03817,0.35775,197.3359,0.7155,30.8,0.7155,50.2,0.7155,-269.3
0.0486,-1.594568E-05,0.3645,-0.2910156,0.3645,-0.8410645,0.3645,-0.3549805,0.3645,-8.274809,0.3645,-23.38931,0.3645,32.0458,0.729,-67.5,0.729,-116.1,0.729,3.1,0.0486,3.138781E-05,0.3645,0.5090332,0.3645,-1.0896,0.3645,-0.04052734,0.3645,82.229,0.3645,-45.06107,0.3645,191.9237,0.729,29.8,0.729,50,0.729,-271.2
0.0495,-2.803082E-05,0.37125,-0.2453613,0.37125,-0.8347168,0.37125,-0.3818359,0.37125,-7.526718,0.37125,-26.16794,0.37125,33.32824,0.7425,-66.6,0.7425,-116.8,0.7425,3.4,0.0495,2.987716E-05,0.37125,0.458252,0.37125,-1.033447,0.37125,-0.03295898,0.37125,72.22137,0.37125,-37.51145,0.37125,181.6641,0.7425,29.7,0.7425,49.7,0.7425,-271.7
0.0504,-4.229801E-05,0.378,-0.2824707,0.378,-0.8654785,0.378,-0.234375,0.378,-6.137404,0.378,-28.73282,0.378,34.61069,0.756,-65.7,0.756,-117.6,0.756,4.2,0.0504,4.179446E-05,0.378,0.5141602,0.378,-1.030762,0.378,0.1225586,0.378,64.74809,0.378,-26.20611,0.378,167.5725,0.756,28.3,0.756,49.3,0.756,-270.1
0.0513,-3.105211E-05,0.38475,-0.2683105,0.38475,-0.8806152,0.38475,-0.3276367,0.38475,-6.992366,0.38475,-32.78626,0.38475,36.27481,0.7695,-64,0.7695,-118.8,0.7695,5.8,0.0513,3.105211E-05,0.38475,0.5749512,0.38475,-1.040039,0.38475,0.1291504,0.38475,57.25191,0.38475,-39.71756,0.38475,151.3053,0.7695,27.8,0.7695,49.5,0.7695,-271.7
0.0522,-3.239491E-05,0.3915,-0.2512207,0.3915,-0.894043,0.3915,-0.239502,0.3915,-6.450382,0.3915,-31.65649,0.3915,37.28244,0.783,-62.3,0.783,-119.7,0.783,6.5,0.0522,2.803082E-05,0.3915,0.541748,0.3915,-1.019531,0.3915,-0.04223633,0.3915,58.72519,0.3915,-59.52672,0.3915,137.5267,0.783,27.5,0.783,49.1,0.783,-271.7
0.0531,-2.920577E-05,0.39825,-0.1765137,0.39825,-0.8808594,0.39825,-0.3466797,0.39825,-8.816793,0.39825,-31.77099,0.39825,37.0229,0.7965,-61,0.7965,-121.1,0.7965,8,0.0531,2.803082E-05,0.39825,0.4785156,0.39825,-0.9973145,0.39825,-0.197998,0.39825,56.33588,0.39825,-49.64885,0.39825,124.2824,0.7965,26.9,0.7965,49.3,0.7965,-271
0.054,-2.534523E-05,0.405,-0.1486816,0.405,-0.8933105,0.405,-0.244873,0.405,-6.335878,0.405,-35.80153,0.405,37.27481,0.81,-59.3,0.81,-121.9,0.81,8.6,0.054,3.30663E-05,0.405,0.4304199,0.405,-0.9689941,0.405,-0.1218262,0.405,46.30534,0.405,-36.32824,0.405,114.0916,0.81,26.4,0.81,49.4,0.81,-272.4
0.0549,-4.213016E-05,0.41175,-0.1379395,0.41175,-0.8781738,0.41175,-0.3137207,0.41175,-5.480916,0.41175,-33.15267,0.41175,37.86259,0.8235,-57.1,0.8235,-123,0.8235,9.5,0.0549,2.551308E-05,0.41175,0.4128418,0.41175,-0.9401855,0.41175,0.02587891,0.41175,43.79389,0.41175,-41.32824,0.41175,104.542,0.8235,26,0.8235,48.6,0.8235,-272.2
0.0558,-3.776608E-05,0.4185,-0.1496582,0.4185,-0.8334961,0.4185,-0.3132324,0.4185,-4.961832,0.4185,-28.75573,0.4185,41.54962,0.837,-52.6,0.837,-124.8,0.837,12.6,0.0558,2.098116E-05,0.4185,0.4057617,0.4185,-0.8615723,0.4185,0.09423828,0.4185,45.80916,0.4185,-67.51908,0.4185,90.21374,0.837,25.1,0.837,48.1,0.837,-271.8
0.0567,-2.265965E-05,0.42525,-0.1931152,0.42525,-0.8200684,0.42525,-0.2644043,0.42525,-4.793893,0.42525,-25.29008,0.42525,44.76336,0.8505,-49.7,0.8505,-126.2,0.8505,13.8,0.0567,2.265965E-05,0.42525,0.4262695,0.42525,-0.7558594,0.42525,0.06030273,0.42525,41.34351,0.42525,-93.9771,0.42525,72.44275,0.8505,24.9,0.8505,47.8,0.8505,-273.6
0.0576,-4.313725E-05,0.432,-0.260498,0.432,-0.8518066,0.432,-0.1518555,0.432,-5.358778,0.432,-25.64122,0.432,49.77863,0.864,-47,0.864,-127.1,0.864,12.6,0.0576,2.333105E-05,0.432,0.4807129,0.432,-0.6933594,0.432,-0.004638672,0.432,27.59542,0.432,-106.8015,0.432,49.45802,0.864,23.7,0.864,47.8,0.864,-271.2
0.0585,-5.119402E-05,0.43875,-0.2719727,0.43875,-0.8518066,0.43875,-0.1623535,0.43875,-6.351145,0.43875,-31.24427,0.43875,52.93893,0.8775,-43.5,0.8775,-128.2,0.8775,12.5,0.0585,0,0.43875,0.560791,0.43875,-0.699707,0.43875,-0.03125,0.43875,14.96947,0.43875,-117.2595,0.43875,26.05343,0.8775,23.5,0.8775,47.2,0.8775,-271.5
0.0594,-5.186542E-05,0.4455,-0.189209,0.4455,-0.8308105,0.4455,-0.2104492,0.4455,-7.236641,0.4455,-34.53435,0.4455,55.61069,0.891,-39.9,0.891,-128.1,0.891,13.6,0.0594,4.028382E-06,0.4455,0.6738281,0.4455,-0.7509766,0.4455,-0.1418457,0.4455,0.6335878,0.4455,-130,0.4455,-4.374046,0.891,22.7,0.891,47.4,0.891,-270.7
0.0603,-4.884413E-05,0.45225,-0.1552734,0.45225,-0.840332,0.45225,-0.08544922,0.45225,-6.587786,0.45225,-32.13741,0.45225,58.08397,0.9045,-36.8,0.9045,-128.6,0.9045,13.6,0.0603,2.383459E-05,0.45225,0.7678223,0.45225,-0.8833008,0.45225,-0.1467285,0.45225,-13.77099,0.45225,-124.4809,0.45225,-39.60305,0.9045,22,0.9045,46.2,0.9045,-270.8
0.0612,-4.649424E-05,0.459,-0.08862305,0.459,-0.8752441,0.459,-0.1726074,0.459,-8.251908,0.459,-29.16794,0.459,61.16031,0.918,-34,0.918,-128.7,0.918,13.3,0.0612,2.030976E-05,0.459,1.018066,0.459,-1.109131,0.459,-0.1035156,0.459,-41.69466,0.459,-169.8473,0.459,-78.61069,0.918,21.7,0.918,46.4,0.918,-271.3
0.0621,-6.260777E-05,0.46575,-0.04785156,0.46575,-0.9013672,0.46575,-0.1047363,0.46575,-5.755725,0.46575,-27.40458,0.46575,64.87786,0.9315,-30.9,0.9315,-128.1,0.9315,14,0.0621,1.980621E-05,0.46575,1.11499,0.46575,-1.418457,0.46575,-0.3864746,0.46575,-52.30534,0.46575,-200.2748,0.46575,-106.9847,0.9315,20.9,0.9315,45.7,0.9315,-272.5
0.063,-5.857939E-05,0.4725,0,0.4725,-0.925293,0.4725,-0.1677246,0.4725,-6.587786,0.4725,-24.54198,0.4725,68.64122,0.945,-27.6,0.945,-127.9,0.945,15.3,0.063,4.448005E-05,0.4725,0.6767578,0.4725,-1.550293,0.4725,-0.6257324,0.4725,-63.58015,0.4725,-84.25191,0.4725,-120.542,0.945,20.5,0.945,45.4,0.945,-272.6
0.0639,-5.539025E-06,0.47925,0.0390625,0.47925,-0.9511719,0.47925,-0.119873,0.47925,-6.458015,0.47925,-18.18321,0.47925,73.87023,0.9585,-21.8,0.9585,-126.3,0.9585,17,0.0639,5.119402E-05,0.47925,-0.04150391,0.47925,-1.639893,0.47925,0.0625,0.47925,-114.7863,0.47925,167.145,0.47925,-101.3588,0.9585,20,0.9585,45.3,0.9585,-271.5
0.0648,-4.867628E-06,0.486,0.06152344,0.486,-0.967041,0.486,-0.1540527,0.486,-8.664123,0.486,-7.534351,0.486,80.41985,0.972,-19.5,0.972,-125.7,0.972,16.3,0.0648,-6.71397E-06,0.486,-0.6782227,0.486,-1.90332,0.486,1.261963,0.486,-161.0076,0.486,250.1298,0.486,-58.05344,0.972,19.6,0.972,45.4,0.972,-272.5
0.0657,-5.891508E-05,0.49275,0.05859375,0.49275,-1.027588,0.49275,-0.1660156,0.49275,-11.70229,0.49275,-5.687023,0.49275,86.05344,0.9855,-17.6,0.9855,-124.9,0.9855,19,0.0657,8.224613E-06,0.49275,-0.9321289,0.49275,-2,0.49275,1.621338,0.49275,-129.2061,0.49275,238.8931,0.49275,-22.68702,0.9855,19.6,0.9855,44.2,0.9855,-271
0.0666,-2.433814E-05,0.4995,-0.02880859,0.4995,-1.070313,0.4995,-0.05712891,0.4995,-11.61069,0.4995,-9.068703,0.4995,88.83206,0.999,-16.2,0.999,-124.2,0.999,18.9,0.0666,4.280156E-05,0.4995,-0.6359863,0.4995,-1.866943,0.4995,1.45752,0.4995,-30.74809,0.4995,51.49618,0.4995,-16.29008,0.999,18.8,0.999,44.6,0.999,-271.5
0.0675,5.035478E-07,0.50625,-0.08764648,0.50625,-1.088623,0.50625,-0.152832,0.50625,-14.98473,0.50625,-12.75572,0.50625,91.14503,1.0125,-14.5,1.0125,-123,1.0125,19.6,0.0675,1.544213E-05,0.50625,0.0324707,0.50625,-1.294189,0.50625,0.9516602,0.50625,61.26717,0.50625,-134.9313,0.50625,-49.49618,1.0125,17.2,1.0125,43.3,1.0125,-271.8
0.0684,5.035478E-07,0.513,-0.1640625,0.513,-1.097656,0.513,-0.1479492,0.513,-15.74046,0.513,-17.45802,0.513,92.22137,1.026,-14,1.026,-121.9,1.026,19,0.0684,2.467384E-05,0.513,0.5080566,0.513,-0.6201172,0.513,0.04467773,0.513,98.0687,0.513,-250.1374,0.513,-93.54198,1.026,16.8,1.026,43,1.026,-272.7
0.0693,1.510643E-05,0.51975,-0.2438965,0.51975,-1.11499,0.51975,-0.1262207,0.51975,-20.67175,0.51975,-28.87023,0.51975,93.76336,1.0395,-13.2,1.0395,-121.9,1.0395,20.8,0.0693,5.320821E-05,0.51975,0.5559082,0.51975,-0.2773438,0.51975,-0.6049805,0.51975,75.37405,0.51975,-250.1374,0.51975,-106.1679,1.0395,16,1.0395,42.5,1.0395,-273.6
0.0702,1.829557E-05,0.5265,-0.307373,0.5265,-1.160156,0.5265,-0.0534668,0.5265,-26.22137,0.5265,-39.35115,0.5265,97.38168,1.053,-13.4,1.053,-121.3,1.053,21.3,0.0702,1.997406E-05,0.5265,0.4208984,0.5265,-0.3444824,0.5265,-0.776123,0.5265,8.106871,0.5265,-218.2443,0.5265,-98.62595,1.053,15.9,1.053,42.2,1.053,-274.1
0.0711,-1.544213E-05,0.53325,-0.3481445,0.53325,-1.210693,0.53325,-0.09741211,0.53325,-33,0.53325,-47,0.53325,101.8092,1.0665,-14,1.0665,-122,1.0665,22.3,0.0711,9.903106E-06,0.53325,0.1325684,0.53325,-0.7697754,0.53325,-0.4726563,0.53325,-66.52672,0.53325,-55.89313,0.53325,-88.89313,1.0665,14.8,1.0665,41.2,1.0665,-273.3
0.072,1.342794E-06,0.54,-0.4074707,0.54,-1.249512,0.54,-0.04492188,0.54,-37.03053,0.54,-60.9542,0.54,104.6183,1.08,-15.1,1.08,-121.7,1.08,23.1,0.072,3.3402E-05,0.54,-0.07788086,0.54,-1.214111,0.54,-0.0246582,0.54,-73.86259,0.54,7.503817,0.54,-84.58015,1.08,14,1.08,41,1.08,-273.1
0.0729,3.994812E-05,0.54675,-0.4638672,0.54675,-1.27832,0.54675,-0.03491211,0.54675,-43.00763,0.54675,-81.70992,0.54675,106.6489,1.0935,-16.9,1.0935,-122.5,1.0935,22.2,0.0729,3.743038E-05,0.54675,-0.06298828,0.54675,-1.400391,0.54675,-0.1459961,0.54675,-43.03053,0.54675,-40.9313,0.54675,-80.20611,1.0935,13.3,1.0935,40.5,1.0935,-274.5
0.07380001,9.231708E-06,0.5535,-0.4907227,0.5535,-1.313477,0.5535,-0.09741211,0.5535,-50.42748,0.5535,-104.3282,0.5535,106.0763,1.107,-18.4,1.107,-124,1.107,21.6,0.07380001,1.594568E-05,0.5535,0.2597656,0.5535,-1.335693,0.5535,-0.638916,0.5535,3.923664,0.5535,-97.44275,0.5535,-68.86259,1.107,13,1.107,39.2,1.107,-274.2
0.07470001,-1.007096E-06,0.56025,-0.4931641,0.56025,-1.356445,0.56025,-0.1184082,0.56025,-56.93893,0.56025,-132.9008,0.56025,106.542,1.1205,-18.8,1.1205,-123.9,1.1205,21.9,0.07470001,2.098116E-05,0.56025,0.6650391,0.56025,-1.006592,0.56025,-0.9370117,0.56025,21.55725,0.56025,-78.96947,0.56025,-54.80153,1.1205,11.6,1.1205,37.8,1.1205,-276
0.0756,3.860533E-06,0.567,-0.4169922,0.567,-1.404785,0.567,-0.09399414,0.567,-63.31298,0.567,-167.6565,0.567,108.3282,1.134,-19.1,1.134,-122.7,1.134,24.5,0.0756,1.141375E-05,0.567,0.8674316,0.567,-0.6535645,0.567,-0.6130371,0.567,-22.46565,0.567,-17.85496,0.567,-44.8168,1.134,11,1.134,37.1,1.134,-275.7
0.0765,-1.779202E-05,0.57375,-0.2670898,0.57375,-1.496826,0.57375,-0.08837891,0.57375,-66.41222,0.57375,-201.2137,0.57375,114.8092,1.1475,-19.8,1.1475,-121.3,1.1475,26,0.0765,9.567407E-06,0.57375,0.8779297,0.57375,-0.4980469,0.57375,-0.1848145,0.57375,-54.87023,0.57375,22.56489,0.57375,-39.60305,1.1475,10.8,1.1475,36.8,1.1475,-276.4
0.0774,-2.870222E-05,0.5805,-0.001220703,0.5805,-1.539551,0.5805,-0.1730957,0.5805,-70.33588,0.5805,-214.1527,0.5805,121.6947,1.161,-20.6,1.161,-120.9,1.161,27.3,0.0774,-1.376364E-05,0.5805,0.8144531,0.5805,-0.5170898,0.5805,0.07324219,0.5805,-56.0916,0.5805,36.34351,0.5805,-37.9313,1.161,9.7,1.161,36.1,1.161,-276.4
0.0783,-3.172351E-05,0.58725,0.3024902,0.58725,-1.517822,0.58725,-0.2541504,0.58725,-67.70229,0.58725,-213.3435,0.58725,126.5573,1.1745,-21.7,1.1745,-120.7,1.1745,26.6,0.0783,-1.963836E-05,0.58725,0.6879883,0.58725,-0.6669922,0.58725,0.008056641,0.58725,-52.17557,0.58725,52.24427,0.58725,-35.87786,1.1745,10.2,1.1745,34.6,1.1745,-276.8
0.0792,-3.356985E-07,0.594,0.5117188,0.594,-1.400146,0.594,-0.2436523,0.594,-55.87023,0.594,-187.1527,0.594,128.3817,1.188,-24,1.188,-120.3,1.188,30.1,0.0792,-6.378271E-06,0.594,0.5959473,0.594,-0.8925781,0.594,-0.09155273,0.594,-55.35878,0.594,63.03817,0.594,-37.21374,1.188,8.9,1.188,33.3,1.188,-277.7
0.0801,2.18204E-05,0.60075,0.6464844,0.60075,-1.133057,0.60075,-0.4672852,0.60075,-28.54198,0.60075,-160.0305,0.60075,130.084,1.2015,-24.5,1.2015,-120.1,1.2015,29.9,0.0801,-4.196231E-06,0.60075,0.5109863,0.60075,-1.069336,0.60075,0.01489258,0.60075,-50,0.60075,53.35878,0.60075,-38.44275,1.2015,9.4,1.2015,32.5,1.2015,-278.5
0.081,3.910888E-05,0.6075,0.7214355,0.6075,-0.9272461,0.6075,-0.7912598,0.6075,-22.41985,0.6075,-123.0992,0.6075,126.3969,1.215,-26.3,1.215,-119.5,1.215,29.7,0.081,-1.510643E-06,0.6075,0.4152832,0.6075,-1.203857,0.6075,0.263916,0.6075,-39.1832,0.6075,50.12977,0.6075,-39.19084,1.215,8.9,1.215,30.7,1.215,-278.7
0.0819,4.800488E-05,0.61425,0.6672363,0.61425,-0.8466797,0.61425,-0.670166,0.61425,-16.60305,0.61425,-74.38931,0.61425,117.2748,1.2285,-26.5,1.2285,-121,1.2285,29,0.0819,9.063859E-06,0.61425,0.2661133,0.61425,-1.202637,0.61425,0.2580566,0.61425,-35.39695,0.61425,47.03817,0.61425,-38.33588,1.2285,8.8,1.2285,29.8,1.2285,-278.5
0.0828,1.695277E-05,0.621,0.5253906,0.621,-0.7756348,0.621,-0.3591309,0.621,9.80916,0.621,-63.78626,0.621,112.1756,1.242,-26.8,1.242,-122.5,1.242,27.6,0.0828,2.803082E-05,0.621,0.1103516,0.621,-1.131348,0.621,0.01831055,0.621,-32.35115,0.621,56.79389,0.621,-37.80916,1.242,8.5,1.242,27.3,1.242,-282
0.0837,-6.881819E-06,0.62775,0.3256836,0.62775,-0.7089844,0.62775,-0.248291,0.62775,20.79389,0.62775,-42.67176,0.62775,108.7328,1.2555,-28.2,1.2555,-123.6,1.2555,26.2,0.0837,2.24918E-05,0.62775,0.05688477,0.62775,-1.099121,0.62775,-0.03320313,0.62775,-28.32061,0.62775,54.9313,0.62775,-36.94656,1.2555,8.3,1.2555,26,1.2555,-282.6
0.0846,-3.978027E-05,0.6345,0.03344727,0.6345,-0.6560059,0.6345,-0.07641602,0.6345,9.740458,0.6345,20.8855,0.6345,103.5115,1.269,-29,1.269,-124.7,1.269,24.5,0.0846,3.524834E-05,0.6345,0.002929688,0.6345,-1.067139,0.6345,0.01953125,0.6345,-18.27481,0.6345,21.13741,0.6345,-36.57252,1.269,8.8,1.269,25.3,1.269,-283.2
0.0855,-5.253682E-05,0.64125,-0.4311523,0.64125,-0.6306152,0.64125,-0.1516113,0.64125,0.3740458,0.64125,117.5496,0.64125,93.79389,1.2825,-29.7,1.2825,-124.9,1.2825,24,0.0855,5.857939E-05,0.64125,-0.182373,0.64125,-1.05542,0.64125,0.0456543,0.64125,-11.9313,0.64125,6,0.64125,-33.41221,1.2825,8.9,1.2825,24.3,1.2825,-283.9
0.0864,-8.476387E-05,0.648,-0.8513184,0.648,-0.6118164,0.648,-0.8620605,0.648,7.015267,0.648,184.2061,0.648,76.33588,1.296,-29.9,1.296,-124.4,1.296,25.1,0.0864,3.961242E-05,0.648,-0.3098145,0.648,-1.006836,0.648,-0.0390625,0.648,-13.20611,0.648,-20.77863,0.648,-31.54198,1.296,9,1.296,24,1.296,-283.7
0.0873,-7.402151E-05,0.65475,-0.9831543,0.65475,-0.6115723,0.65475,-1.158936,0.65475,9.732824,0.65475,101.7786,0.65475,65.75572,1.3095,-30.3,1.3095,-124.4,1.3095,26.4,0.0873,3.071641E-05,0.65475,-0.3200684,0.65475,-0.9780273,0.65475,-0.123291,0.65475,-9.229008,0.65475,-55.19847,0.65475,-30.9313,1.3095,9.5,1.3095,24.2,1.3095,-284.1
0.0882,-1.661708E-05,0.6615,-0.9797363,0.6615,-0.6706543,0.6615,-0.7915039,0.6615,-2.198473,0.6615,-65.39695,0.6615,54.76336,1.323,-31.5,1.323,-123,1.323,28.1,0.0882,4.112306E-05,0.6615,-0.1452637,0.6615,-0.9509277,0.6615,-0.1186523,0.6615,-3.778626,0.6615,-87.48092,0.6615,-30.67175,1.323,9.4,1.323,24.8,1.323,-284.8
0.0891,7.385367E-06,0.66825,-0.8400879,0.66825,-0.8120117,0.66825,-0.2275391,0.66825,-11.69466,0.66825,-172.1298,0.66825,38.32061,1.3365,-31.8,1.3365,-122.5,1.3365,28.4,0.0891,2.18204E-05,0.66825,0.07836914,0.66825,-0.939209,0.66825,-0.1320801,0.66825,-4.694656,0.66825,-91.46565,0.66825,-30.27481,1.3365,10,1.3365,24.2,1.3365,-284.8
0.09,-1.12459E-05,0.675,-0.6503906,0.675,-0.9179688,0.675,0.02612305,0.675,-14.54198,0.675,-175.1069,0.675,16.17557,1.35,-32.6,1.35,-122.2,1.35,27.9,0.09,4.36408E-06,0.675,0.2995605,0.675,-0.9143066,0.675,-0.1691895,0.675,-11.51145,0.675,-83.60305,0.675,-30.94657,1.35,10.8,1.35,23.5,1.35,-283.7
0.0909,1.661708E-05,0.68175,-0.4631348,0.68175,-0.8771973,0.68175,-0.04980469,0.68175,-12.01527,0.68175,-138.6488,0.68175,0.03053435,1.3635,-33.1,1.3635,-122.6,1.3635,27.8,0.0909,8.728161E-06,0.68175,0.4262695,0.68175,-0.9040527,0.68175,-0.260498,0.68175,-17.0687,0.68175,-51.12214,0.68175,-30.01527,1.3635,12.1,1.3635,23.5,1.3635,-287
0.0918,4.951553E-05,0.6885,-0.2590332,0.6885,-0.6853027,0.6885,-0.2111816,0.6885,-1.206107,0.6885,-113.8321,0.6885,-6.564886,1.377,-33.9,1.377,-122.8,1.377,26.9,0.0918,1.477073E-05,0.6885,0.5715332,0.6885,-0.9233398,0.6885,-0.1271973,0.6885,-26.43511,0.6885,-6.19084,0.6885,-32.32061,1.377,12.4,1.377,24.4,1.377,-287.7
0.0927,-3.692683E-06,0.69525,-0.1303711,0.69525,-0.4790039,0.69525,-0.3041992,0.69525,4.954198,0.69525,-108.4733,0.69525,-4.274809,1.3905,-34.5,1.3905,-123.7,1.3905,25.2,0.0927,-1.258869E-05,0.69525,0.5817871,0.69525,-0.9521484,0.69525,-0.1618652,0.69525,-28.60305,0.69525,25.70992,0.69525,-35.76336,1.3905,13.3,1.3905,25.3,1.3905,-286.8
0.0936,7.385367E-06,0.702,-0.126709,0.702,-0.3447266,0.702,-0.2805176,0.702,-1.030534,0.702,-101.8779,0.702,-4.549618,1.404,-34.7,1.404,-124.5,1.404,26,0.0936,-4.196231E-06,0.702,0.5336914,0.702,-0.9758301,0.702,-0.09570313,0.702,-31.64122,0.702,66.08397,0.702,-36.09924,1.404,13.7,1.404,26.2,1.404,-287.7
0.09450001,-1.09102E-05,0.70875,-0.1799316,0.70875,-0.2966309,0.70875,-0.2092285,0.70875,-9.114504,0.70875,-95.8168,0.70875,-12.57252,1.4175,-35.5,1.4175,-124.1,1.4175,24.7,0.09450001,3.860533E-06,0.70875,0.34375,0.70875,-0.994873,0.70875,-0.03393555,0.70875,-33.41221,0.70875,80.94656,0.70875,-33.47328,1.4175,14.4,1.4175,27.8,1.4175,-287.2
0.09540001,-4.951553E-05,0.7155,-0.1875,0.7155,-0.2956543,0.7155,-0.111084,0.7155,-11.59542,0.7155,-83.32061,0.7155,-29.57252,1.431,-36.5,1.431,-125,1.431,24.9,0.09540001,-4.061952E-05,0.7155,0.142334,0.7155,-1.054199,0.7155,0.003173828,0.7155,-33.10687,0.7155,86.87023,0.7155,-30.09924,1.431,16,1.431,29.1,1.431,-287.5
0.09630001,-1.09102E-05,0.72225,-0.09692383,0.72225,-0.3151855,0.72225,-0.06567383,0.72225,-8.832061,0.72225,-56.44275,0.72225,-50.96183,1.4445,-36.9,1.4445,-124.6,1.4445,23.4,0.09630001,-2.702373E-05,0.72225,0.01757813,0.72225,-1.128418,0.72225,0.03735352,0.72225,-29.9313,0.72225,68.29771,0.72225,-28.49618,1.4445,16.9,1.4445,30.8,1.4445,-287.2
0.0972,3.390555E-05,0.729,0.04980469,0.729,-0.3349609,0.729,-0.1069336,0.729,-3.389313,0.729,-20.70992,0.729,-70.61069,1.458,-37.9,1.458,-125,1.458,23.3,0.0972,2.853437E-05,0.729,0.005126953,0.729,-1.160156,0.729,0.08154297,0.729,-22.54198,0.729,48.26717,0.729,-29.89313,1.458,18.3,1.458,32.7,1.458,-287
0.0981,9.063859E-06,0.73575,0.1564941,0.73575,-0.3491211,0.73575,-0.177002,0.73575,1.236641,0.73575,9.328244,0.73575,-83.50381,1.4715,-38.1,1.4715,-124.7,1.4715,23.1,0.0981,9.903106E-06,0.73575,0.02612305,0.73575,-1.114258,0.73575,0.04101563,0.73575,-16.51908,0.73575,23.60305,0.73575,-31.23664,1.4715,19.6,1.4715,34.3,1.4715,-285.5
0.099,-5.690089E-05,0.7425,0.189209,0.7425,-0.3806152,0.7425,-0.2304688,0.7425,6.030534,0.7425,44.01527,0.7425,-93.17558,1.485,-39.5,1.485,-125.4,1.485,24.1,0.099,9.735257E-06,0.7425,0.07641602,0.7425,-1.048584,0.7425,-0.03686523,0.7425,-13.57252,0.7425,12.41221,0.7425,-31.35878,1.485,22,1.485,39.1,1.485,-283.7
0.0999,-2.584878E-05,0.74925,0.1196289,0.74925,-0.3955078,0.74925,-0.2497559,0.74925,13,0.74925,78.87023,0.74925,-101.9618,1.4985,-39.6,1.4985,-125.7,1.4985,22.8,0.0999,4.213016E-05,0.74925,0.1418457,0.74925,-0.9907227,0.74925,-0.07128906,0.74925,-13.62595,0.74925,-0.9236641,0.74925,-30.47328,1.4985,24.4,1.4985,41.2,1.4985,-284.2
0.1008,-8.392462E-07,0.756,-0.02001953,0.756,-0.4255371,0.756,-0.2570801,0.756,17.00763,0.756,109.6107,0.756,-109.4122,1.512,-40.2,1.512,-125.4,1.512,23.1,0.1008,3.743038E-05,0.756,0.1730957,0.756,-0.9689941,0.756,-0.09375,0.756,-10.47328,0.756,-0.4961832,0.756,-30.39695,1.512,26.5,1.512,42.7,1.512,-281.3
0.1017,-4.46479E-05,0.76275,-0.1657715,0.76275,-0.4689941,0.76275,-0.2363281,0.76275,17.64886,0.76275,129.4275,0.76275,-114.626,1.5255,-40.2,1.5255,-125.2,1.5255,24.3,0.1017,2.098116E-05,0.76275,0.2263184,0.76275,-0.9362793,0.76275,-0.08911133,0.76275,-12.0458,0.76275,0.7175573,0.76275,-30.32061,1.5255,28.7,1.5255,44.8,1.5255,-280.4
0.1026,-6.697185E-05,0.7695,-0.3300781,0.7695,-0.4890137,0.7695,-0.2172852,0.7695,20.25954,0.7695,144.5954,0.7695,-121.7023,1.539,-41.8,1.539,-125.3,1.539,23.5,0.1026,-1.527428E-05,0.7695,0.2607422,0.7695,-0.9260254,0.7695,-0.1525879,0.7695,-10.48092,0.7695,0.740458,0.7695,-30.69466,1.539,31.2,1.539,45.8,1.539,-279.4
0.1035,-5.421531E-05,0.77625,-0.4313965,0.77625,-0.4445801,0.77625,-0.2453613,0.77625,25.91603,0.77625,149.6718,0.77625,-131.7481,1.5525,-42.5,1.5525,-125.7,1.5525,23.5,0.1035,-3.205921E-05,0.77625,0.2907715,0.77625,-0.9094238,0.77625,-0.171875,0.77625,-12.73282,0.77625,5.267176,0.77625,-30.54962,1.5525,33.2,1.5525,46.6,1.5525,-278.6
0.1044,-3.843748E-05,0.783,-0.4814453,0.783,-0.3583984,0.783,-0.2766113,0.783,31.48855,0.783,142.5573,0.783,-145.145,1.566,-43.4,1.566,-125.4,1.566,24.4,0.1044,-1.326009E-05,0.783,0.3256836,0.783,-0.9213867,0.783,-0.1328125,0.783,-13.74046,0.783,8.862596,0.783,-30.15267,1.566,35.6,1.566,47.1,1.566,-279.4
0.1053,-2.551308E-05,0.78975,-0.5195313,0.78975,-0.2768555,0.78975,-0.310791,0.78975,34.56488,0.78975,130.2366,0.78975,-160.1221,1.5795,-43.9,1.5795,-125.5,1.5795,21.8,0.1053,-6.6804E-05,0.78975,0.342041,0.78975,-0.9248047,0.78975,-0.07470703,0.78975,-13.92366,0.78975,14.69466,0.78975,-30.03817,1.5795,38.4,1.5795,47.8,1.5795,-278.8
0.1062,-3.105211E-05,0.7965,-0.5366211,0.7965,-0.267334,0.7965,-0.3254395,0.7965,35.0458,0.7965,118.0916,0.7965,-171.5496,1.593,-44,1.593,-125.6,1.593,22.2,0.1062,-5.186542E-05,0.7965,0.3017578,0.7965,-0.9296875,0.7965,-0.1418457,0.7965,-14.08397,0.7965,21.93893,0.7965,-29.54962,1.593,40.8,1.593,48.1,1.593,-277.8
0.1071,8.224613E-06,0.80325,-0.5495605,0.80325,-0.3168945,0.80325,-0.317627,0.80325,34.59542,0.80325,103.8702,0.80325,-181.9847,1.6065,-45.2,1.6065,-126.2,1.6065,20.4,0.1071,-1.174945E-05,0.80325,0.2653809,0.80325,-0.9465332,0.80325,-0.1230469,0.80325,-16.51908,0.80325,24.89313,0.80325,-28.53435,1.6065,45.3,1.6065,48.7,1.6065,-278.1
0.108,1.05745E-05,0.81,-0.5546875,0.81,-0.4013672,0.81,-0.28125,0.81,34.78626,0.81,88.85497,0.81,-190.1756,1.62,-46,1.62,-126.5,1.62,20.5,0.108,3.860533E-06,0.81,0.2460938,0.81,-0.9643555,0.81,-0.1047363,0.81,-15.51908,0.81,19.9313,0.81,-28.37405,1.62,46.7,1.62,48.6,1.62,-276.4
0.1089,-2.081331E-05,0.81675,-0.5505371,0.81675,-0.4882813,0.81675,-0.2529297,0.81675,37.55725,0.81675,79.06107,0.81675,-197.7405,1.6335,-46.4,1.6335,-125.9,1.6335,20.5,0.1089,1.510643E-06,0.81675,0.2478027,0.81675,-0.9699707,0.81675,-0.09326172,0.81675,-14.9771,0.81675,14.79389,0.81675,-29.16031,1.6335,48.1,1.6335,48.2,1.6335,-276.9
0.1098,-7.93927E-05,0.8235,-0.536377,0.8235,-0.5144043,0.8235,-0.2329102,0.8235,42.35115,0.8235,69.85497,0.8235,-204.8321,1.647,-47.9,1.647,-125.6,1.647,20.2,0.1098,1.309224E-05,0.8235,0.2666016,0.8235,-0.9741211,0.8235,-0.0715332,0.8235,-14.77863,0.8235,6.427481,0.8235,-30.57252,1.647,49.7,1.647,48.5,1.647,-276.8
0.1107,-7.200732E-05,0.83025,-0.5395508,0.83025,-0.5397949,0.83025,-0.2131348,0.83025,47.46565,0.83025,60.21374,0.83025,-214.458,1.6605,-48.8,1.6605,-125.6,1.6605,20.4,0.1107,4.263371E-05,0.83025,0.267334,0.83025,-0.9848633,0.83025,-0.06176758,0.83025,-12.60305,0.83025,5.045802,0.83025,-31.20611,1.6605,51,1.6605,48.1,1.6605,-277.3
0.1116,-6.227207E-05,0.837,-0.5549316,0.837,-0.565918,0.837,-0.2060547,0.837,49.27481,0.837,50.20611,0.837,-223.7634,1.674,-49.3,1.674,-125.9,1.674,19.8,0.1116,2.719158E-05,0.837,0.2749023,0.837,-0.9821777,0.837,-0.06176758,0.837,-11.25954,0.837,-3.236641,0.837,-30.54962,1.674,51.7,1.674,48.1,1.674,-277.3
0.1125,-5.891508E-05,0.84375,-0.5722656,0.84375,-0.5969238,0.84375,-0.1862793,0.84375,51.08397,0.84375,42.51145,0.84375,-232.3512,1.6875,-50.8,1.6875,-126.1,1.6875,20.1,0.1125,2.517739E-05,0.84375,0.2138672,0.84375,-0.9946289,0.84375,-0.07202148,0.84375,-8.503817,0.84375,1.152672,0.84375,-28.0916,1.6875,52.6,1.6875,48.6,1.6875,-276.2
0.1134,-3.591974E-05,0.8505,-0.5710449,0.8505,-0.6333008,0.8505,-0.204834,0.8505,53.96183,0.8505,32.87023,0.8505,-239.0992,1.701,-52.1,1.701,-125.6,1.701,18.4,0.1134,4.985122E-05,0.8505,0.2456055,0.8505,-1.007813,0.8505,-0.0637207,0.8505,-9.648855,0.8505,-9.259542,0.8505,-25.70992,1.701,53,1.701,48.4,1.701,-275.3
0.1143,-4.766919E-05,0.85725,-0.5703125,0.85725,-0.6728516,0.85725,-0.2060547,0.85725,56.58015,0.85725,18.96947,0.85725,-247.0458,1.7145,-52.9,1.7145,-125.7,1.7145,18.9,0.1143,1.997406E-05,0.85725,0.277832,0.85725,-0.9919434,0.85725,-0.08374023,0.85725,-4.603054,0.85725,-15.62595,0.85725,-24.58015,1.7145,52.7,1.7145,48.1,1.7145,-274.3
0.1152,-4.750134E-05,0.864,-0.5664063,0.864,-0.737793,0.864,-0.1965332,0.864,56.22901,0.864,4.129771,0.864,-250.1374,1.728,-53.5,1.728,-125.3,1.728,17.9,0.1152,6.713969E-07,0.864,0.3115234,0.864,-0.9841309,0.864,-0.1066895,0.864,-4.854962,0.864,-8.297709,0.864,-25.32825,1.728,52,1.728,48.8,1.728,-273.6
0.1161,-2.937362E-05,0.87075,-0.5925293,0.87075,-0.8435059,0.87075,-0.1638184,0.87075,53.54198,0.87075,3.114504,0.87075,-250.1374,1.7415,-54.4,1.7415,-125.1,1.7415,17.5,0.1161,8.560311E-06,0.87075,0.3427734,0.87075,-0.9909668,0.87075,-0.07543945,0.87075,-5.015267,0.87075,-12.54962,0.87075,-27.22137,1.7415,50.9,1.7415,49.7,1.7415,-272.8
0.117,-4.112306E-05,0.8775,-0.5961914,0.8775,-0.8710938,0.8775,-0.1733398,0.8775,57.48855,0.8775,12.12977,0.8775,-250.1374,1.755,-55.3,1.755,-125.2,1.755,17,0.117,-1.225299E-05,0.8775,0.3776855,0.8775,-1.023193,0.8775,-0.04833984,0.8775,-3.167939,0.8775,-4.656488,0.8775,-28.25191,1.755,50.6,1.755,49.5,1.755,-272.3
0.1179,-5.4551E-05,0.88425,-0.5527344,0.88425,-0.8833008,0.88425,-0.1789551,0.88425,62.30534,0.88425,3.587786,0.88425,-250.1374,1.7685,-57,1.7685,-124.9,1.7685,16.5,0.1179,-2.165255E-05,0.88425,0.3459473,0.88425,-1.000488,0.88425,-0.0859375,0.88425,-1.70229,0.88425,-2.664122,0.88425,-27.29008,1.7685,49,1.7685,50.8,1.7685,-272.2
0.1188,-1.712062E-05,0.891,-0.5078125,0.891,-0.9116211,0.891,-0.1489258,0.891,55.91603,0.891,1.51145,0.891,-250.1374,1.782,-57.5,1.782,-124.7,1.782,15,0.1188,-4.582285E-05,0.891,0.3056641,0.891,-0.9858398,0.891,-0.1838379,0.891,-2.129771,0.891,7.709924,0.891,-26.27481,1.782,48.5,1.782,50.8,1.782,-270.2
0.1197,1.05745E-05,0.89775,-0.4238281,0.89775,-0.947998,0.89775,-0.1254883,0.89775,55.21374,0.89775,10.73282,0.89775,-250.1374,1.7955,-58.8,1.7955,-124.2,1.7955,13.1,0.1197,-1.376364E-05,0.89775,0.2683105,0.89775,-0.9875488,0.89775,-0.1103516,0.89775,-3.083969,0.89775,5.221374,0.89775,-24.98473,1.7955,48.3,1.7955,51.2,1.7955,-272.3
0.1206,4.682994E-05,0.9045,-0.3129883,0.9045,-0.9956055,0.9045,-0.09277344,0.9045,56.80153,0.9045,18.12977,0.9045,-250.1374,1.809,-59.6,1.809,-124.3,1.809,14.1,0.1206,-3.440909E-05,0.9045,0.2636719,0.9045,-0.9904785,0.9045,-0.08398438,0.9045,-2.442748,0.9045,4.992366,0.9045,-25.89313,1.809,48.1,1.809,50.5,1.809,-275.1
0.1215,7.972839E-05,0.91125,-0.2131348,0.91125,-1.021484,0.91125,-0.1027832,0.91125,59.15267,0.91125,29.30534,0.91125,-250.1374,1.8225,-61.2,1.8225,-123.5,1.8225,13.2,0.1215,-1.728847E-05,0.91125,0.2868652,0.91125,-0.9802246,0.91125,-0.08959961,0.91125,-2.343511,0.91125,1.984733,0.91125,-27.75573,1.8225,47.9,1.8225,50.1,1.8225,-273.9
0.1224,5.925078E-05,0.918,-0.15625,0.918,-1.039307,0.918,-0.1376953,0.918,65.09924,0.918,50.21374,0.918,-250.1374,1.836,-61.5,1.836,-123.2,1.836,12.7,0.1224,-3.356985E-06,0.918,0.2734375,0.918,-0.9746094,0.918,-0.1425781,0.918,-2.358779,0.918,9.625955,0.918,-29,1.836,45.9,1.836,51.3,1.836,-268.2
0.1233,6.210422E-06,0.92475,-0.1564941,0.92475,-1.052002,0.92475,-0.1691895,0.92475,67.75572,0.92475,74.92367,0.92475,-250.1374,1.8495,-61.9,1.8495,-121.9,1.8495,12,0.1233,3.004501E-05,0.92475,0.2678223,0.92475,-0.9912109,0.92475,-0.05297852,0.92475,-4.885496,0.92475,13.64886,0.92475,-29.54198,1.8495,45.6,1.8495,51.6,1.8495,-268.9
0.1242,-3.575189E-05,0.9315,-0.2297363,0.9315,-1.047852,0.9315,-0.1975098,0.9315,69.96947,0.9315,90.76336,0.9315,-250.1374,1.863,-63.4,1.863,-121.8,1.863,11.3,0.1242,4.901198E-05,0.9315,0.2160645,0.9315,-1.018066,0.9315,-0.01586914,0.9315,-3.694656,0.9315,16.53435,0.9315,-30.10687,1.863,44.4,1.863,52.3,1.863,-267.6
0.1251,-4.850843E-05,0.93825,-0.3671875,0.93825,-1.065918,0.93825,-0.190918,0.93825,68.21374,0.93825,96.37405,0.93825,-250.1374,1.8765,-64.2,1.8765,-121.4,1.8765,11,0.1251,3.675898E-05,0.93825,0.151123,0.93825,-1.013428,0.93825,-0.1633301,0.93825,-6.061069,0.93825,29.23664,0.93825,-29.94657,1.8765,43.4,1.8765,52.1,1.8765,-268.9
0.126,-1.779202E-05,0.945,-0.5178223,0.945,-1.091553,0.945,-0.2080078,0.945,62.68702,0.945,102.1603,0.945,-245.1603,1.89,-65.8,1.89,-120.6,1.89,9.4,0.126,4.280156E-05,0.945,0.09716797,0.945,-0.9838867,0.945,-0.08129883,0.945,-5.648855,0.945,27.73282,0.945,-30.8855,1.89,42.3,1.89,52,1.89,-267.2
0.1269,-1.560998E-05,0.95175,-0.5788574,0.95175,-1.114258,0.95175,-0.2756348,0.95175,59.9084,0.95175,95.84733,0.95175,-228.5114,1.9035,-67,1.9035,-119.1,1.9035,7,0.1269,4.061952E-05,0.95175,0.09301758,0.95175,-0.9802246,0.95175,-0.06689453,0.95175,-6.503817,0.95175,24.63359,0.95175,-33.96183,1.9035,41.8,1.9035,51.2,1.9035,-267.2
0.1278,-8.224613E-06,0.9585,-0.5554199,0.9585,-1.104736,0.9585,-0.2390137,0.9585,54.08397,0.9585,68.03817,0.9585,-210.2672,1.917,-67.7,1.917,-118.8,1.917,7.6,0.1278,1.174945E-05,0.9585,0.1032715,0.9585,-0.9626465,0.9585,-0.03076172,0.9585,-4.496183,0.9585,23.33588,0.9585,-38.58015,1.917,41,1.917,51.2,1.917,-266.5
0.1287,2.18204E-06,0.96525,-0.4428711,0.96525,-1.10791,0.96525,-0.2045898,0.96525,49.29008,0.96525,53.80153,0.96525,-195.3817,1.9305,-68.2,1.9305,-118.2,1.9305,4.4,0.1287,9.735257E-06,0.96525,0.09570313,0.96525,-0.9780273,0.96525,-0.05297852,0.96525,-6.564886,0.96525,27.69466,0.96525,-41.29771,1.9305,40.1,1.9305,51.8,1.9305,-267.3
0.1296,-4.196231E-06,0.972,-0.3444824,0.972,-1.158936,0.972,-0.1105957,0.972,42.8855,0.972,49.9313,0.972,-180.2061,1.944,-69.3,1.944,-117.6,1.944,3.2,0.1296,2.198825E-05,0.972,0.09741211,0.972,-0.9897461,0.972,-0.0402832,0.972,-6.633588,0.972,28.12214,0.972,-44.03817,1.944,40.1,1.944,51.8,1.944,-267.7
0.1305,1.493858E-05,0.97875,-0.2980957,0.97875,-1.192383,0.97875,-0.07910156,0.97875,40.0229,0.97875,71.1832,0.97875,-167.229,1.9575,-70.1,1.9575,-117.4,1.9575,2.9,0.1305,-5.539025E-06,0.97875,0.09277344,0.97875,-0.9921875,0.97875,-0.07495117,0.97875,-8.076336,0.97875,31.77099,0.97875,-46.19847,1.9575,39.4,1.9575,52,1.9575,-268.3
0.1314,3.424125E-05,0.9855,-0.3361816,0.9855,-1.161621,0.9855,-0.138916,0.9855,41.85496,0.9855,90.21374,0.9855,-155.1145,1.971,-70.6,1.971,-116.5,1.971,1.7,0.1314,1.326009E-05,0.9855,0.07104492,0.9855,-0.9987793,0.9855,-0.04663086,0.9855,-7.954198,0.9855,31.12977,0.9855,-48.73283,1.971,37.8,1.971,51.9,1.971,-271.1
0.1323,1.863126E-05,0.99225,-0.3713379,0.99225,-1.071045,0.99225,-0.2229004,0.99225,42.51145,0.99225,94.09161,0.99225,-143.8473,1.9845,-70.5,1.9845,-115.9,1.9845,0,0.1323,7.888914E-06,0.99225,0.1130371,0.99225,-0.9973145,0.99225,-0.1135254,0.99225,-9.297709,0.99225,31.30534,0.99225,-51.70992,1.9845,37.2,1.9845,51.3,1.9845,-269.5
0.1332,1.510643E-06,0.999,-0.4099121,0.999,-0.9465332,0.999,-0.2612305,0.999,33.41221,0.999,89.62595,0.999,-127.687,1.998,-70,1.998,-115,1.998,1.3,0.1332,4.531929E-06,0.999,0.1479492,0.999,-1.014893,0.999,-0.07446289,0.999,-9.961832,0.999,29.0916,0.999,-55.48855,1.998,36.7,1.998,51.1,1.998,-269.1
0.1341,1.242084E-05,1.00575,-0.4199219,1.00575,-0.8312988,1.00575,-0.2658691,1.00575,19.9084,1.00575,84.25954,1.00575,-107.5038,2.0115,-71.1,2.0115,-114.1,2.0115,3.4,0.1341,6.54612E-06,1.00575,0.2001953,1.00575,-1.046143,1.00575,-0.08056641,1.00575,-10.40458,1.00575,32.00763,1.00575,-58.77863,2.0115,36.4,2.0115,51.6,2.0115,-269.1
0.135,1.879911E-05,1.0125,-0.458252,1.0125,-0.7512207,1.0125,-0.262207,1.0125,7.335878,1.0125,75.32825,1.0125,-84.48092,2.025,-71.2,2.025,-113.6,2.025,5.3,0.135,1.930266E-05,1.0125,0.2175293,1.0125,-1.080322,1.0125,-0.078125,1.0125,-10.74809,1.0125,33.19084,1.0125,-60.77099,2.025,35,2.025,51.4,2.025,-267.7
0.1359,2.450599E-05,1.01925,-0.5197754,1.01925,-0.7131348,1.01925,-0.2290039,1.01925,-1.053435,1.01925,70.38931,1.01925,-63.78626,2.0385,-71.7,2.0385,-113,2.0385,5.5,0.1359,1.292439E-05,1.01925,0.2192383,1.01925,-1.082764,1.01925,-0.08837891,1.01925,-10.62595,1.01925,36.52672,1.01925,-61.53435,2.0385,35.1,2.0385,51.9,2.0385,-268.1
0.1368,2.265965E-05,1.026,-0.5766602,1.026,-0.7006836,1.026,-0.2248535,1.026,-7.877862,1.026,71.26717,1.026,-38.30534,2.052,-71.2,2.052,-112.9,2.052,4.4,0.1368,-2.568093E-05,1.026,0.2331543,1.026,-1.079102,1.026,-0.07202148,1.026,-12.03817,1.026,37.52672,1.026,-63.35878,2.052,34.2,2.052,51.8,2.052,-266.8
0.1377,5.287251E-05,1.03275,-0.5871582,1.03275,-0.699707,1.03275,-0.255127,1.03275,-14.55725,1.03275,66.96183,1.03275,-14.61832,2.0655,-70.7,2.0655,-112.4,2.0655,3.8,0.1377,-1.628138E-05,1.03275,0.2023926,1.03275,-1.088135,1.03275,-0.1359863,1.03275,-11.32061,1.03275,42.75573,1.03275,-64.9542,2.0655,33.8,2.0655,51.1,2.0655,-267.6
0.1386,8.426032E-05,1.0395,-0.5554199,1.0395,-0.6936035,1.0395,-0.2722168,1.0395,-23.13741,1.0395,50.64885,1.0395,6.396946,2.079,-70.6,2.079,-113.2,2.079,3,0.1386,1.05745E-05,1.0395,0.2397461,1.0395,-1.070801,1.0395,-0.1306152,1.0395,-11.92366,1.0395,37.9084,1.0395,-67.55725,2.079,32.7,2.079,50.8,2.079,-268.9
0.1395,6.579691E-05,1.04625,-0.5153809,1.04625,-0.6938477,1.04625,-0.2351074,1.04625,-31.26718,1.04625,39.08397,1.04625,25.54962,2.0925,-69.7,2.0925,-113.5,2.0925,4,0.1395,-1.963836E-05,1.04625,0.2832031,1.04625,-1.065918,1.04625,-0.09204102,1.04625,-11.34351,1.04625,36.21374,1.04625,-70.47328,2.0925,31.7,2.0925,50.9,2.0925,-268.4
0.1404,3.508049E-05,1.053,-0.4978027,1.053,-0.6872559,1.053,-0.2172852,1.053,-38.9542,1.053,41.38931,1.053,41.44275,2.106,-68.6,2.106,-114.1,2.106,5.2,0.1404,-2.853437E-05,1.053,0.328125,1.053,-1.064209,1.053,-0.1218262,1.053,-12.75572,1.053,38.53435,1.053,-72.8855,2.106,31.6,2.106,50.8,2.106,-268.8
0.1413,-8.392462E-06,1.05975,-0.494873,1.05975,-0.6901855,1.05975,-0.2705078,1.05975,-48.03053,1.05975,46.70992,1.05975,58.71756,2.1195,-67.5,2.1195,-116.2,2.1195,4.1,0.1413,-8.728161E-06,1.05975,0.3291016,1.05975,-1.058838,1.05975,-0.1450195,1.05975,-13.05344,1.05975,42.64122,1.05975,-73.98473,2.1195,30.2,2.1195,50.7,2.1195,-270.2
0.1422,-6.361487E-05,1.0665,-0.4902344,1.0665,-0.7387695,1.0665,-0.204834,1.0665,-57.67176,1.0665,32,1.0665,73.35114,2.133,-66,2.133,-116.7,2.133,6,0.1422,-1.05745E-05,1.0665,0.3457031,1.0665,-1.063721,1.0665,-0.2011719,1.0665,-15.39695,1.0665,48.20611,1.0665,-74.17558,2.133,30.4,2.133,51.1,2.133,-272.1
0.1431,-7.70428E-05,1.07325,-0.5048828,1.07325,-0.8669434,1.07325,-0.003173828,1.07325,-73.09161,1.07325,12.01527,1.07325,88.19847,2.1465,-64.7,2.1465,-117.8,2.1465,7.3,0.1431,-2.18204E-06,1.07325,0.2736816,1.07325,-1.04248,1.07325,-0.1066895,1.07325,-14.66412,1.07325,50.94656,1.07325,-74.42748,2.1465,29.7,2.1465,50.5,2.1465,-270.8
0.144,-6.260777E-05,1.08,-0.4602051,1.08,-1.13501,1.08,0.1459961,1.08,-99.16794,1.08,-1.167939,1.08,99.9542,2.16,-63,2.16,-118.8,2.16,7.7,0.144,4.515145E-05,1.08,0.3117676,1.08,-1.125,1.08,-0.1762695,1.08,-14.70992,1.08,49.79389,1.08,-79.09161,2.16,28.7,2.16,49.9,2.16,-270.2
0.1449,3.860533E-06,1.08675,-0.1000977,1.08675,-1.784912,1.08675,0.2634277,1.08675,-141.5725,1.08675,-80.39695,1.08675,107.3282,2.1735,-61,2.1735,-119.8,2.1735,9.4,0.1449,7.402151E-05,1.08675,0.3549805,1.08675,-1.132568,1.08675,0.0949707,1.08675,-14.69466,1.08675,45.1145,1.08675,-84.87023,2.1735,28.2,2.1735,49.8,2.1735,-271.3
0.1458,3.40734E-05,1.0935,0.3811035,1.0935,-2,1.0935,0.8908691,1.0935,-151.542,1.0935,-215.0992,1.0935,93.73283,2.187,-58.9,2.187,-121,2.187,11.8,0.1458,3.776608E-05,1.0935,0.2687988,1.0935,-1.119873,1.0935,-0.06860352,1.0935,-12.28244,1.0935,62.54962,1.0935,-87.48092,2.187,27.6,2.187,49.1,2.187,-271
0.1467,-3.659113E-05,1.10025,0.4736328,1.10025,-2,1.10025,1.81543,1.10025,-47.21374,1.10025,-239.1221,1.10025,64.83969,2.2005,-57,2.2005,-122.1,2.2005,12.5,0.1467,3.390555E-05,1.10025,0.1237793,1.10025,-1.15332,1.10025,-0.1518555,1.10025,-15.25954,1.10025,66.73283,1.10025,-88.67939,2.2005,27.1,2.2005,49.4,2.2005,-270.4
0.1476,-8.392462E-06,1.107,0.5524902,1.107,-1.98584,1.107,1.439453,1.107,51.0687,1.107,-67.90839,1.107,59.22901,2.214,-54.4,2.214,-122.9,2.214,13.8,0.1476,1.896696E-05,1.107,0.01342773,1.107,-1.196289,1.107,0.02490234,1.107,-18.17557,1.107,52.67939,1.107,-89.61832,2.214,27,2.214,48.8,2.214,-270
0.1485,-1.007096E-06,1.11375,0.486084,1.11375,-1.273438,1.11375,0.3571777,1.11375,24.58015,1.11375,239.4733,1.11375,65.45802,2.2275,-51.4,2.2275,-124,2.2275,15.4,0.1485,2.568093E-05,1.11375,0.04541016,1.11375,-1.223145,1.11375,-0.01098633,1.11375,-15.12977,1.11375,34.9771,1.11375,-91.84733,2.2275,26,2.2275,49,2.2275,-269.9
0.1494,2.853437E-06,1.1205,0.1516113,1.1205,-0.8308105,1.1205,0.1330566,1.1205,11.0229,1.1205,236.7252,1.1205,84.80916,2.241,-44.8,2.241,-125.8,2.241,16,0.1494,1.560998E-05,1.1205,0.112793,1.1205,-1.230469,1.1205,-0.1027832,1.1205,-16.06107,1.1205,28.9084,1.1205,-93.48855,2.241,25.9,2.241,49,2.241,-270.6
0.1503,7.888914E-06,1.12725,-0.2800293,1.12725,-0.5532227,1.12725,0.06030273,1.12725,22.93893,1.12725,201.4962,1.12725,110.3588,2.2545,-42.2,2.2545,-126.2,2.2545,16.8,0.1503,2.467384E-05,1.12725,0.2036133,1.12725,-1.219727,1.12725,0,1.12725,-20.9542,1.12725,23.82443,1.12725,-94.87023,2.2545,25.1,2.2545,48.5,2.2545,-269.7
0.1512,8.89601E-06,1.134,-0.5314941,1.134,-0.4084473,1.134,-0.09008789,1.134,18.29771,1.134,250.1298,1.134,120.4198,2.268,-38.5,2.268,-127.2,2.268,16.7,0.1512,4.884413E-05,1.134,0.2790527,1.134,-1.212646,1.134,0.03320313,1.134,-23.22137,1.134,23.50382,1.134,-97.03817,2.268,24.5,2.268,48.5,2.268,-269.8
0.1521,3.205921E-05,1.14075,-0.7126465,1.14075,-0.4157715,1.14075,-0.3210449,1.14075,-4.290076,1.14075,250.1298,1.14075,123.5343,2.2815,-35.4,2.2815,-127.3,2.2815,17.6,0.1521,2.24918E-05,1.14075,0.3737793,1.14075,-1.185791,1.14075,0.03540039,1.14075,-27.74046,1.14075,30.54198,1.14075,-101.229,2.2815,24.1,2.2815,48,2.2815,-269.8
0.153,4.380865E-05,1.1475,-0.7375488,1.1475,-0.6025391,1.1475,-0.489502,1.1475,-23.58015,1.1475,180.6641,1.1475,125.1832,2.295,-31.9,2.295,-127.5,2.295,17.9,0.153,1.007096E-06,1.1475,0.409668,1.1475,-1.19458,1.1475,0.06567383,1.1475,-32.0916,1.1475,37.31298,1.1475,-106.8244,2.295,23.5,2.295,47.4,2.295,-271.3
0.1539,8.308538E-05,1.15425,-0.5410156,1.15425,-0.7944336,1.15425,-0.6179199,1.15425,-37.67176,1.15425,80.38931,1.15425,120.1527,2.3085,-29,2.3085,-126.4,2.3085,17.4,0.1539,-4.196231E-06,1.15425,0.4204102,1.15425,-1.210693,1.15425,0.09155273,1.15425,-35.07634,1.15425,48.12977,1.15425,-112.4046,2.3085,23,2.3085,47.1,2.3085,-270.4
0.1548,9.030289E-05,1.161,-0.3242188,1.161,-0.8337402,1.161,-0.6274414,1.161,-51.03817,1.161,49.39695,1.161,110.7099,2.322,-25.6,2.322,-126,2.322,18.8,0.1548,-7.553216E-06,1.161,0.3867188,1.161,-1.272705,1.161,0.1530762,1.161,-37.08397,1.161,58.67176,1.161,-117.5115,2.322,21.4,2.322,47.2,2.322,-270.8
0.1557,9.651331E-05,1.16775,-0.1540527,1.16775,-0.7504883,1.16775,-0.6696777,1.16775,-48.14504,1.16775,70.36641,1.16775,99.74046,2.3355,-22.8,2.3355,-125.5,2.3355,18,0.1557,-2.31632E-05,1.16775,0.3356934,1.16775,-1.339844,1.16775,0.1357422,1.16775,-38.82443,1.16775,67.62595,1.16775,-121.8473,2.3355,21,2.3355,46.3,2.3355,-271.3
0.1566,3.205921E-05,1.1745,-0.07836914,1.1745,-0.666748,1.1745,-0.7712402,1.1745,-30.55725,1.1745,101.4504,1.1745,88.80916,2.349,-17.9,2.349,-123.8,2.349,19.3,0.1566,-2.333105E-05,1.1745,0.2626953,1.1745,-1.425293,1.1745,0.2131348,1.1745,-40.35878,1.1745,67.27481,1.1745,-124.8092,2.349,20.6,2.349,46,2.349,-271.7
0.1575,-7.77142E-05,1.18125,-0.09033203,1.18125,-0.6003418,1.18125,-0.9399414,1.18125,-19.25954,1.18125,131.1679,1.18125,74.16794,2.3625,-16,2.3625,-123,2.3625,20.6,0.1575,-2.1149E-05,1.18125,0.2224121,1.18125,-1.473389,1.18125,0.2192383,1.18125,-37.00763,1.18125,74.14503,1.18125,-127.458,2.3625,20.3,2.3625,45.4,2.3625,-272
0.1584,-0.0001134661,1.188,-0.1677246,1.188,-0.5498047,1.188,-1.102051,1.188,-23.09924,1.188,119.1145,1.188,54.98473,2.376,-14.6,2.376,-122.7,2.376,18.4,0.1584,-1.560998E-05,1.188,0.1748047,1.188,-1.49707,1.188,0.1931152,1.188,-33.19084,1.188,80.55725,1.188,-129.8397,2.376,19.6,2.376,45.2,2.376,-270.1
0.1593,-8.207828E-05,1.19475,-0.324707,1.19475,-0.5668945,1.19475,-0.9929199,1.19475,-40.69466,1.19475,73.61069,1.19475,41.17557,2.3895,-13.3,2.3895,-122.2,2.3895,19.1,0.1593,-2.198825E-05,1.19475,0.1000977,1.19475,-1.492676,1.19475,0.2570801,1.19475,-31.70992,1.19475,84.64122,1.19475,-131.458,2.3895,19.3,2.3895,44.9,2.3895,-271.8
0.1602,-4.313725E-05,1.2015,-0.5861816,1.2015,-0.6655273,1.2015,-0.6376953,1.2015,-62.48855,1.2015,14.42748,1.2015,31.71756,2.403,-12.6,2.403,-121.7,2.403,19.8,0.1602,8.560311E-06,1.2015,-0.01513672,1.2015,-1.478516,1.2015,0.2858887,1.2015,-32.10687,1.2015,96.39695,1.2015,-133.8397,2.403,18.5,2.403,44.1,2.403,-272.5
0.1611,-3.138781E-05,1.20825,-0.8447266,1.20825,-0.7368164,1.20825,-0.3825684,1.20825,-66.90076,1.20825,-19.25191,1.20825,20.9542,2.4165,-12.9,2.4165,-120.5,2.4165,19.8,0.1611,8.392462E-07,1.20825,-0.06958008,1.20825,-1.445068,1.20825,0.2683105,1.20825,-31.78626,1.20825,95.87786,1.20825,-135.0305,2.4165,17.8,2.4165,43.8,2.4165,-272.1
0.162,-1.208515E-05,1.215,-0.9648438,1.215,-0.7480469,1.215,-0.3127441,1.215,-61.92366,1.215,-68.70992,1.215,12.45802,2.43,-13.7,2.43,-120.5,2.43,21.9,0.162,-1.661708E-05,1.215,-0.05761719,1.215,-1.371338,1.215,0.1176758,1.215,-34.09924,1.215,99.22137,1.215,-135.8702,2.43,16.8,2.43,43.8,2.43,-272.6
0.1629,2.1149E-05,1.22175,-0.9233398,1.22175,-0.7631836,1.22175,-0.263916,1.22175,-64.34351,1.22175,-124,1.22175,9.396947,2.4435,-14.3,2.4435,-120.8,2.4435,23.2,0.1629,1.846342E-06,1.22175,-0.03881836,1.22175,-1.299072,1.22175,0.05078125,1.22175,-37.68702,1.22175,106.6412,1.22175,-134.9466,2.4435,15.5,2.4435,42.2,2.4435,-273.1
0.1638,3.860533E-06,1.2285,-0.7121582,1.2285,-0.8117676,1.2285,-0.1916504,1.2285,-68.92367,1.2285,-169.3817,1.2285,7.419847,2.457,-14.6,2.457,-121.1,2.457,23.5,0.1638,1.762417E-05,1.2285,0.007080078,1.2285,-1.265869,1.2285,-0.01464844,1.2285,-41.06107,1.2285,120.6412,1.2285,-133.3282,2.457,14.8,2.457,41.3,2.457,-273.3
0.1647,-4.129091E-05,1.23525,-0.4702148,1.23525,-0.9152832,1.23525,-0.09375,1.23525,-71.50381,1.23525,-188.4275,1.23525,3.51145,2.4705,-16,2.4705,-121.2,2.4705,23.5,0.1647,-4.531929E-06,1.23525,0.03759766,1.23525,-1.238037,1.23525,-0.09326172,1.23525,-41.51145,1.23525,140.3206,1.23525,-131.7634,2.4705,14.1,2.4705,41,2.4705,-274.4
0.1656,-8.560311E-06,1.242,-0.3186035,1.242,-1.042725,1.242,-0.04516602,1.242,-71.87786,1.242,-187.0305,1.242,0.03053435,2.484,-17.9,2.484,-123.7,2.484,22.2,0.1656,1.326009E-05,1.242,0.06713867,1.242,-1.198486,1.242,-0.3105469,1.242,-33.35878,1.242,177.7023,1.242,-130.1374,2.484,13.5,2.484,40.7,2.484,-274.6
0.1665,5.035477E-06,1.24875,-0.2399902,1.24875,-1.125,1.24875,-0.01245117,1.24875,-67.42748,1.24875,-173.9924,1.24875,0.8244275,2.4975,-18.3,2.4975,-124.8,2.4975,22.1,0.1665,4.716564E-05,1.24875,0.1308594,1.24875,-1.143555,1.24875,-0.3303223,1.24875,-23.54962,1.24875,175.8244,1.24875,-129.3053,2.4975,12.9,2.4975,40.1,2.4975,-274.6
0.1674,-3.541619E-05,1.2555,-0.1335449,1.2555,-1.129639,1.2555,0.02709961,1.2555,-53.41985,1.2555,-145.9237,1.2555,6.931298,2.511,-18.5,2.511,-122.9,2.511,24,0.1674,3.071641E-05,1.2555,0.1403809,1.2555,-1.121826,1.2555,-0.2470703,1.2555,-31.19847,1.2555,150.1756,1.2555,-127.1069,2.511,12.6,2.511,38.7,2.511,-275.7
0.1683,-5.757229E-05,1.26225,0.05126953,1.26225,-1.0625,1.26225,0.1091309,1.26225,-37.35878,1.26225,-111.0153,1.26225,15.57252,2.5245,-19.6,2.5245,-121.2,2.5245,25.3,0.1683,2.366674E-05,1.26225,0.1479492,1.26225,-1.119873,1.26225,-0.2067871,1.26225,-35.45038,1.26225,125.5725,1.26225,-121.5802,2.5245,11.5,2.5245,37.7,2.5245,-274.8
0.1692,-3.675898E-05,1.269,0.2619629,1.269,-0.951416,1.269,0.07324219,1.269,-18.64886,1.269,-51.70229,1.269,24,2.538,-19.9,2.538,-120.8,2.538,26.8,0.1692,3.172351E-05,1.269,0.1999512,1.269,-1.113525,1.269,-0.09448242,1.269,-35.05344,1.269,72.12214,1.269,-115.9924,2.538,11.4,2.538,36.6,2.538,-277.1
0.1701,-3.978027E-05,1.27575,0.4638672,1.27575,-0.8549805,1.27575,-0.05224609,1.27575,-5.465649,1.27575,-2.854962,1.27575,28.07634,2.5515,-21.4,2.5515,-121.7,2.5515,27.3,0.1701,9.231708E-06,1.27575,0.3024902,1.27575,-1.084961,1.27575,0.08276367,1.27575,-48.40458,1.27575,-9.244275,1.27575,-108.1985,2.5515,10.6,2.5515,35.9,2.5515,-277.5
0.171,-5.656519E-05,1.2825,0.5727539,1.2825,-0.7753906,1.2825,-0.2207031,1.2825,-0.7557252,1.2825,39.40458,1.2825,28.73282,2.565,-22.6,2.565,-121.6,2.565,26.9,0.171,-1.829557E-05,1.2825,0.3857422,1.2825,-1.03418,1.2825,0.1538086,1.2825,-50.29008,1.2825,-70.771,1.2825,-102.458,2.565,10,2.565,33.7,2.565,-278.4
0.1719,-4.145876E-05,1.28925,0.5383301,1.28925,-0.7409668,1.28925,-0.2609863,1.28925,-0.3664122,1.28925,70.28244,1.28925,28.64886,2.5785,-22.7,2.5785,-122,2.5785,27.8,0.1719,-1.09102E-05,1.28925,0.5749512,1.28925,-0.9465332,1.28925,0.1037598,1.28925,-36.21374,1.28925,-115.8855,1.28925,-96.12977,2.5785,9.4,2.5785,32.8,2.5785,-278.1
0.1728,-1.242084E-05,1.296,0.3886719,1.296,-0.7060547,1.296,-0.3112793,1.296,5.954198,1.296,105.2519,1.296,29.36641,2.592,-24.9,2.592,-121.3,2.592,28.8,0.1728,-4.43122E-05,1.296,0.8674316,1.296,-0.8278809,1.296,-0.1818848,1.296,-19.43511,1.296,-132.7252,1.296,-87.66412,2.592,9.9,2.592,31.3,2.592,-280
0.1737,-1.644923E-05,1.30275,0.2836914,1.30275,-0.6965332,1.30275,-0.3847656,1.30275,8.59542,1.30275,126.9542,1.30275,30.16794,2.6055,-24.9,2.6055,-121.3,2.6055,28.6,0.1737,-1.292439E-05,1.30275,1.097168,1.30275,-0.6784668,1.30275,-0.630127,1.30275,-18.12977,1.30275,-121.4122,1.30275,-81.09924,2.6055,8.9,2.6055,29.5,2.6055,-282.6
0.1746,-2.836652E-05,1.3095,0.1533203,1.3095,-0.706543,1.3095,-0.4677734,1.3095,4.236641,1.3095,142.7481,1.3095,30.80153,2.619,-26,2.619,-122,2.619,28.7,0.1746,-2.24918E-05,1.3095,1.17749,1.3095,-0.5776367,1.3095,-1.002197,1.3095,-20.42748,1.3095,-90.83206,1.3095,-74.22137,2.619,9.5,2.619,28.2,2.619,-283.5
0.1755,-3.944457E-05,1.31625,0.08520508,1.31625,-0.7512207,1.31625,-0.5454102,1.31625,-0.1450382,1.31625,141.771,1.31625,30.14504,2.6325,-26.4,2.6325,-123.1,2.6325,27,0.1755,-2.24918E-05,1.31625,1.194824,1.31625,-0.5251465,1.31625,-1.053955,1.31625,-30.69466,1.31625,-18.19847,1.31625,-62.0687,2.6325,9.3,2.6325,26.8,2.6325,-283.3
0.1764,-4.481575E-05,1.323,-0.06958008,1.323,-0.8371582,1.323,-0.5454102,1.323,-3.320611,1.323,129.1603,1.323,29.85496,2.646,-27.2,2.646,-123.8,2.646,26,0.1764,-1.326009E-05,1.323,1.118896,1.323,-0.4335938,1.323,-0.7922363,1.323,-49.44275,1.323,50.12977,1.323,-52.74809,2.646,9.2,2.646,26.3,2.646,-284
0.1773,-2.417029E-05,1.32975,-0.2753906,1.32975,-0.9003906,1.32975,-0.5405273,1.32975,-2.801527,1.32975,114.1221,1.32975,28.67939,2.6595,-28.2,2.6595,-125.2,2.6595,24,0.1773,-1.628138E-05,1.32975,0.8249512,1.32975,-0.3925781,1.32975,-0.3417969,1.32975,-54.22137,1.32975,103.0229,1.32975,-50.74046,2.6595,10,2.6595,25.5,2.6595,-285.4
0.1782,-3.155566E-05,1.3365,-0.4482422,1.3365,-0.9299316,1.3365,-0.5371094,1.3365,-4.557252,1.3365,72.20611,1.3365,25.35878,2.673,-28.7,2.673,-125,2.673,23.9,0.1782,1.644923E-05,1.3365,0.4936523,1.3365,-0.4150391,1.3365,-0.1384277,1.3365,-40.10687,1.3365,135.8168,1.3365,-45.0687,2.673,9.8,2.673,25.7,2.673,-285.6
0.1791,-3.038071E-05,1.34325,-0.6408691,1.34325,-0.9106445,1.34325,-0.4350586,1.34325,-12.18321,1.34325,12.16794,1.34325,17.68702,2.6865,-29.3,2.6865,-124.6,2.6865,25.5,0.1791,2.987716E-05,1.34325,0.1831055,1.34325,-0.4875488,1.34325,-0.1149902,1.34325,-21.48855,1.34325,144.5191,1.34325,-22.72519,2.6865,10.7,2.6865,25.2,2.6865,-283.4
0.18,3.356985E-07,1.35,-0.6906738,1.35,-0.8640137,1.35,-0.2807617,1.35,-20.61832,1.35,-45.62595,1.35,12.0229,2.7,-29.3,2.7,-124.1,2.7,26.5,0.18,3.205921E-05,1.35,0.1066895,1.35,-0.489502,1.35,-0.05517578,1.35,-17.65649,1.35,120.542,1.35,8.610687,2.7,10.8,2.7,25.2,2.7,-284.9
0.1809,2.450599E-05,1.35675,-0.6242676,1.35675,-0.8215332,1.35675,-0.2214355,1.35675,-28.34351,1.35675,-83.91603,1.35675,9.832061,2.7135,-31.1,2.7135,-123.2,2.7135,28,0.1809,4.095522E-05,1.35675,0.1662598,1.35675,-0.435791,1.35675,0.04467773,1.35675,-17.0229,1.35675,76.45038,1.35675,35.16031,2.7135,12.2,2.7135,25,2.7135,-286.3
0.1818,-1.359579E-05,1.3635,-0.4174805,1.3635,-0.8293457,1.3635,-0.1818848,1.3635,-33.64122,1.3635,-116.1985,1.3635,8.824428,2.727,-31.3,2.727,-123.5,2.727,27.9,0.1818,5.62295E-05,1.3635,0.2607422,1.3635,-0.3769531,1.3635,0.08911133,1.3635,-10.61069,1.3635,41.8168,1.3635,53.68702,2.727,12.2,2.727,24.4,2.727,-286.3
0.1827,-2.719158E-05,1.37025,-0.1381836,1.37025,-0.8974609,1.37025,-0.1450195,1.37025,-36.61832,1.37025,-133.9924,1.37025,9.251908,2.7405,-32.2,2.7405,-123.4,2.7405,26.9,0.1827,4.917983E-05,1.37025,0.3791504,1.37025,-0.3129883,1.37025,0.08666992,1.37025,-0.7862595,1.37025,16.12977,1.37025,70.48855,2.7405,12.9,2.7405,24.5,2.7405,-288.2
0.1836,-6.009003E-05,1.377,0.1367188,1.377,-0.9616699,1.377,0.01171875,1.377,-32.9771,1.377,-118.2824,1.377,9.648855,2.754,-32.5,2.754,-124.2,2.754,26.5,0.1836,2.198825E-05,1.377,0.4973145,1.377,-0.2973633,1.377,0.02832031,1.377,1.625954,1.377,-2.282443,1.377,81.84733,2.754,14.1,2.754,25.7,2.754,-287.6
0.1845,-5.287251E-05,1.38375,0.2883301,1.38375,-0.9597168,1.38375,0.01245117,1.38375,-21.57252,1.38375,-75.0458,1.38375,13.09924,2.7675,-32.9,2.7675,-124.6,2.7675,24.4,0.1845,-5.539025E-06,1.38375,0.5559082,1.38375,-0.3256836,1.38375,-0.07104492,1.38375,0.6412213,1.38375,-15.50382,1.38375,89.08397,2.7675,15,2.7675,26.7,2.7675,-287.6
0.1854,-1.510643E-06,1.3905,0.3371582,1.3905,-0.8969727,1.3905,-0.1159668,1.3905,-12.16794,1.3905,-39.92366,1.3905,15.49618,2.781,-33.9,2.781,-125.2,2.781,24.6,0.1854,2.198825E-05,1.3905,0.546875,1.3905,-0.3562012,1.3905,-0.1088867,1.3905,0.4045801,1.3905,-6.137404,1.3905,96.60305,2.781,15.3,2.781,27.8,2.781,-288.7
0.1863,-8.392462E-07,1.39725,0.3000488,1.39725,-0.8132324,1.39725,-0.2592773,1.39725,-3.748092,1.39725,-21.77099,1.39725,16.74809,2.7945,-35,2.7945,-125.6,2.7945,23.1,0.1863,-5.539025E-06,1.39725,0.4924316,1.39725,-0.3972168,1.39725,-0.05493164,1.39725,-0.5572519,1.39725,12,1.39725,107.1908,2.7945,16.7,2.7945,28.8,2.7945,-287.9
0.1872,-3.474479E-05,1.404,0.1872559,1.404,-0.7705078,1.404,-0.2561035,1.404,-5.946565,1.404,-6.519084,1.404,18.0458,2.808,-35.1,2.808,-125.4,2.808,24.3,0.1872,-1.644923E-05,1.404,0.4162598,1.404,-0.4299316,1.404,0.004150391,1.404,-1.709924,1.404,9.427481,1.404,120.3664,2.808,19.2,2.808,32.2,2.808,-288.6
0.1881,-4.280156E-05,1.41075,0.0769043,1.41075,-0.7695313,1.41075,-0.2600098,1.41075,-9.389313,1.41075,-2.206107,1.41075,21.21374,2.8215,-35.9,2.8215,-125.9,2.8215,24.2,0.1881,6.378271E-06,1.41075,0.3388672,1.41075,-0.4511719,1.41075,0.07592773,1.41075,4.236641,1.41075,-17.57252,1.41075,135.771,2.8215,19.9,2.8215,34.3,2.8215,-286.4
0.189,-8.560311E-06,1.4175,0.001464844,1.4175,-0.7546387,1.4175,-0.3154297,1.4175,-12.22137,1.4175,-3.908397,1.4175,23.74046,2.835,-36.8,2.835,-126.3,2.835,23.5,0.189,4.699778E-06,1.4175,0.2851563,1.4175,-0.4741211,1.4175,0.1347656,1.4175,10.14504,1.4175,-40.94656,1.4175,149.0305,2.835,22.3,2.835,36.5,2.835,-287.1
0.1899,2.131685E-05,1.42425,-0.007080078,1.42425,-0.7314453,1.42425,-0.3615723,1.42425,-14.92366,1.42425,-16.54962,1.42425,24.21374,2.8485,-37.8,2.8485,-126,2.8485,22.5,0.1899,-2.232395E-05,1.42425,0.2861328,1.42425,-0.4660645,1.42425,0.1386719,1.42425,15.38931,1.42425,-52.41221,1.42425,162.4275,2.8485,23.5,2.8485,38.2,2.8485,-286.9
0.1908,1.594568E-05,1.431,0.01904297,1.431,-0.7441406,1.431,-0.3225098,1.431,-20.87023,1.431,-29.94657,1.431,22.96947,2.862,-38.7,2.862,-126,2.862,22.6,0.1908,-4.531929E-06,1.431,0.314209,1.431,-0.439209,1.431,0.1411133,1.431,19.57252,1.431,-76.771,1.431,175.5496,2.862,25.3,2.862,40.8,2.862,-286.7
0.1917,1.15816E-05,1.43775,-0.02905273,1.43775,-0.7895508,1.43775,-0.1691895,1.43775,-20.30534,1.43775,-24.69466,1.43775,23,2.8755,-39.8,2.8755,-125.6,2.8755,21.7,0.1917,3.877318E-05,1.43775,0.3217773,1.43775,-0.3996582,1.43775,0.09594727,1.43775,24.16794,1.43775,-101.6489,1.43775,187.9237,2.8755,26.9,2.8755,42.5,2.8755,-284.6
0.1926,2.450599E-05,1.4445,-0.09545898,1.4445,-0.8054199,1.4445,-0.1965332,1.4445,-16.93893,1.4445,-16.79389,1.4445,25.64122,2.889,-40.4,2.889,-126,2.889,20.8,0.1926,-1.678492E-07,1.4445,0.3356934,1.4445,-0.4008789,1.4445,0.07226563,1.4445,27.48855,1.4445,-110.2977,1.4445,199.3282,2.889,29.4,2.889,44.3,2.889,-282.7
0.1935,1.359579E-05,1.45125,-0.1245117,1.45125,-0.7924805,1.45125,-0.2587891,1.45125,-16.31298,1.45125,-21.03817,1.45125,27.89313,2.9025,-40.2,2.9025,-125.7,2.9025,22.1,0.1935,7.553216E-06,1.45125,0.355957,1.45125,-0.4509277,1.45125,0.05371094,1.45125,32.75573,1.45125,-122.0687,1.45125,212.8473,2.9025,32,2.9025,45.8,2.9025,-282.2
0.1944,3.088426E-05,1.458,-0.06982422,1.458,-0.8349609,1.458,-0.2263184,1.458,-18.66412,1.458,-30.55725,1.458,28.61069,2.916,-40.9,2.916,-126.3,2.916,23,0.1944,3.575189E-05,1.458,0.3835449,1.458,-0.5263672,1.458,0.04248047,1.458,42.19847,1.458,-137.9695,1.458,225.8244,2.916,34.8,2.916,46.8,2.916,-280.4
0.1953,3.424125E-05,1.46475,-0.02026367,1.46475,-0.8901367,1.46475,-0.1015625,1.46475,-17.94657,1.46475,-20.59542,1.46475,28.16794,2.9295,-41.2,2.9295,-126.1,2.9295,22.9,0.1953,1.040665E-05,1.46475,0.3955078,1.46475,-0.583252,1.46475,-0.03295898,1.46475,56.19084,1.46475,-143.2901,1.46475,237.0534,2.9295,39,2.9295,48,2.9295,-281.7
0.1962,3.440909E-05,1.4715,-0.01074219,1.4715,-0.8823242,1.4715,-0.1848145,1.4715,-11.0687,1.4715,-8.106871,1.4715,28.67175,2.943,-42.8,2.943,-125.9,2.943,21.1,0.1962,1.007096E-06,1.4715,0.371582,1.4715,-0.5878906,1.4715,-0.07324219,1.4715,59.77099,1.4715,-130.9084,1.4715,246.2137,2.943,41.5,2.943,48.1,2.943,-282.8
0.1971,3.843748E-05,1.47825,-0.003662109,1.47825,-0.8286133,1.47825,-0.2558594,1.47825,-6.954198,1.47825,-1.580153,1.47825,28.51908,2.9565,-43.6,2.9565,-126.6,2.9565,21,0.1971,9.231708E-06,1.47825,0.3708496,1.47825,-0.6020508,1.47825,-0.04541016,1.47825,52.0687,1.47825,-119.1298,1.47825,250.1298,2.9565,43.4,2.9565,47.5,2.9565,-282.5
0.198,1.275654E-05,1.485,-0.05419922,1.485,-0.7998047,1.485,-0.2666016,1.485,-5.70229,1.485,6.122138,1.485,29.0916,2.97,-44.2,2.97,-126.3,2.97,21,0.198,-1.258869E-05,1.485,0.4003906,1.485,-0.6604004,1.485,0.05688477,1.485,49.86259,1.485,-126.1832,1.485,250.1298,2.97,45.4,2.97,47.3,2.97,-281.8
0.1989,-6.965744E-05,1.49175,-0.1166992,1.49175,-0.7817383,1.49175,-0.2192383,1.49175,-6.89313,1.49175,9.519084,1.49175,29.9771,2.9835,-45.1,2.9835,-126.2,2.9835,20.4,0.1989,-7.385367E-06,1.49175,0.4536133,1.49175,-0.7675781,1.49175,0.09741211,1.49175,60.36641,1.49175,-146.6336,1.49175,250.1298,2.9835,47.7,2.9835,47.2,2.9835,-282.3
0.1998,-7.100023E-05,1.4985,-0.1730957,1.4985,-0.7788086,1.4985,-0.248291,1.4985,-5.763359,1.4985,4.137404,1.4985,31.17557,2.997,-45.8,2.997,-126,2.997,20.1,0.1998,-1.493858E-05,1.4985,0.5446777,1.4985,-0.8935547,1.4985,0.04052734,1.4985,71.85497,1.4985,-162.1221,1.4985,250.1298,2.997,49.6,2.997,47.5,2.997,-281.2
0.2007,-4.666209E-05,1.50525,-0.1679688,1.50525,-0.762207,1.50525,-0.2746582,1.50525,-6.267176,1.50525,0.4732825,1.50525,30.58779,3.0105,-46.9,3.0105,-126.8,3.0105,20.4,0.2007,-3.860533E-06,1.50525,0.6525879,1.50525,-1.034668,1.50525,-0.09619141,1.50525,80.74046,1.50525,-169.8779,1.50525,250.1298,3.0105,51.4,3.0105,47.4,3.0105,-280.5
0.2016,-7.435721E-05,1.512,-0.177002,1.512,-0.786377,1.512,-0.2900391,1.512,-8.801527,1.512,-3.10687,1.512,30.51908,3.024,-48,3.024,-126.2,3.024,20.6,0.2016,1.242084E-05,1.512,0.8249512,1.512,-1.185791,1.512,-0.1525879,1.512,83.73283,1.512,-163.8015,1.512,250.1298,3.024,52.4,3.024,47.2,3.024,-281
0.2025,-5.874724E-05,1.51875,-0.1872559,1.51875,-0.7775879,1.51875,-0.3103027,1.51875,-10.61069,1.51875,-4.648855,1.51875,30.72519,3.0375,-48.6,3.0375,-126.2,3.0375,19.6,0.2025,-1.846342E-06,1.51875,0.9443359,1.51875,-1.200928,1.51875,-0.2792969,1.51875,98.37405,1.51875,-150.145,1.51875,250.1298,3.0375,53.2,3.0375,47.4,3.0375,-281
0.2034,-3.776608E-05,1.5255,-0.1789551,1.5255,-0.8056641,1.5255,-0.3041992,1.5255,-11.32061,1.5255,-10.96947,1.5255,30.39695,3.051,-49.2,3.051,-126,3.051,19.3,0.2034,8.224613E-06,1.5255,1.027344,1.5255,-1.186768,1.5255,-0.230957,1.5255,98.80916,1.5255,-104.8397,1.5255,250.1298,3.051,53.9,3.051,47.1,3.051,-280
0.2043,-5.320821E-05,1.53225,-0.2099609,1.53225,-0.8435059,1.53225,-0.2353516,1.53225,-11.54198,1.53225,-9.656488,1.53225,31.16031,3.0645,-51.3,3.0645,-125.6,3.0645,18.4,0.2043,2.836652E-05,1.53225,1.092041,1.53225,-1.113525,1.53225,-0.09130859,1.53225,96.17558,1.53225,-71.03053,1.53225,250.1298,3.0645,53.8,3.0645,47.8,3.0645,-278.4
0.2052,-6.025788E-05,1.539,-0.1967773,1.539,-0.8620605,1.539,-0.2402344,1.539,-10.51145,1.539,-15.79389,1.539,30.93893,3.078,-52,3.078,-125.7,3.078,18.5,0.2052,4.045167E-05,1.539,1.023193,1.539,-1.0271,1.539,-0.05981445,1.539,104.5954,1.539,-45.22901,1.539,250.1298,3.078,53.2,3.078,48.2,3.078,-277.1
0.2061,-4.716564E-05,1.54575,-0.2036133,1.54575,-0.8662109,1.54575,-0.2458496,1.54575,-10.16031,1.54575,-20.82443,1.54575,30.86259,3.0915,-52.5,3.0915,-125.7,3.0915,17.3,0.2061,2.232395E-05,1.54575,0.9267578,1.54575,-1.01416,1.54575,-0.04003906,1.54575,102.9542,1.54575,-24.72519,1.54575,250.1298,3.0915,52.5,3.0915,48.6,3.0915,-277.7
0.207,-2.064546E-05,1.5525,-0.151123,1.5525,-0.8508301,1.5525,-0.2397461,1.5525,-10.61069,1.5525,-21.76336,1.5525,29.71756,3.105,-53.2,3.105,-125.5,3.105,16.3,0.207,2.517739E-05,1.5525,0.8029785,1.5525,-1.062744,1.5525,-0.03735352,1.5525,99.229,1.5525,-19.77863,1.5525,250.1298,3.105,51.5,3.105,49.3,3.105,-277.5
0.2079,-7.553216E-06,1.55925,-0.1276855,1.55925,-0.8500977,1.55925,-0.2314453,1.55925,-9.541985,1.55925,-24.80153,1.55925,29.34351,3.1185,-53.9,3.1185,-124.8,3.1185,17.9,0.2079,1.795987E-05,1.55925,0.7316895,1.55925,-1.156006,1.55925,-0.07763672,1.55925,95.25954,1.55925,-28.78626,1.55925,250.1298,3.1185,51.2,3.1185,49.7,3.1185,-276.5
0.2088,1.560998E-05,1.566,-0.1083984,1.566,-0.8186035,1.566,-0.2407227,1.566,-9.335877,1.566,-20.54198,1.566,30.54962,3.132,-55,3.132,-125.1,3.132,15.4,0.2088,1.712062E-05,1.566,0.6801758,1.566,-1.222412,1.566,-0.1030273,1.566,88.24428,1.566,-27.81679,1.566,250.1298,3.132,50.6,3.132,50.3,3.132,-274.6
0.2097,3.793393E-05,1.57275,-0.08984375,1.57275,-0.8085938,1.57275,-0.2443848,1.57275,-10.29008,1.57275,-23.81679,1.57275,32.83206,3.1455,-56.2,3.1455,-124.3,3.1455,15.4,0.2097,1.359579E-05,1.57275,0.6345215,1.57275,-1.251221,1.57275,-0.05126953,1.57275,86.62595,1.57275,-20.74046,1.57275,250.1298,3.1455,50.3,3.1455,49.4,3.1455,-278.6
0.2106,1.913481E-05,1.5795,-0.09057617,1.5795,-0.7939453,1.5795,-0.220459,1.5795,-11.0916,1.5795,-25.0916,1.5795,35.45802,3.159,-57.6,3.159,-124,3.159,15.1,0.2106,3.27306E-05,1.5795,0.5532227,1.5795,-1.277344,1.5795,0.07104492,1.5795,87.43511,1.5795,-24.35878,1.5795,250.1298,3.159,50.3,3.159,49.6,3.159,-277.4
0.2115,5.203327E-06,1.58625,-0.04125977,1.58625,-0.7912598,1.58625,-0.2399902,1.58625,-11.80153,1.58625,-28.60305,1.58625,35.77863,3.1725,-58.8,3.1725,-123.4,3.1725,15.9,0.2115,-1.661708E-05,1.58625,0.4938965,1.58625,-1.282959,1.58625,0.1413574,1.58625,92.1145,1.58625,-37.03053,1.58625,249.3817,3.1725,48.8,3.1725,50.7,3.1725,-272.3
0.2124,1.661708E-05,1.593,0.01147461,1.593,-0.8056641,1.593,-0.2697754,1.593,-12.22137,1.593,-31.63359,1.593,36.1832,3.186,-59.4,3.186,-123.4,3.186,13.5,0.2124,-4.867628E-06,1.593,0.4777832,1.593,-1.275146,1.593,0.1142578,1.593,93.90076,1.593,-49.59542,1.593,242.2214,3.186,47.5,3.186,51.7,3.186,-271.1
0.2133,-1.510643E-05,1.59975,0.02612305,1.59975,-0.8127441,1.59975,-0.2485352,1.59975,-12.70229,1.59975,-28.26718,1.59975,36.78626,3.1995,-60.8,3.1995,-122.6,3.1995,14,0.2133,-8.89601E-06,1.59975,0.4677734,1.59975,-1.246826,1.59975,0.02978516,1.59975,93.58015,1.59975,-54.82443,1.59975,234.542,3.1995,46.4,3.1995,51.1,3.1995,-271.4
0.2142,-8.744945E-05,1.6065,-0.004638672,1.6065,-0.814209,1.6065,-0.2595215,1.6065,-12.29008,1.6065,-22.79389,1.6065,38.80916,3.213,-61.8,3.213,-122.2,3.213,13.4,0.2142,-1.560998E-05,1.6065,0.4902344,1.6065,-1.2146,1.6065,0.01000977,1.6065,88.22137,1.6065,-47.06107,1.6065,222.7634,3.213,45.7,3.213,50.9,3.213,-271.9
0.2151,-5.320821E-05,1.61325,-0.0324707,1.61325,-0.8017578,1.61325,-0.2814941,1.61325,-13.52672,1.61325,-21.41985,1.61325,41.99237,3.2265,-62.3,3.2265,-121.2,3.2265,12.7,0.2151,-2.165255E-05,1.61325,0.5239258,1.61325,-1.201416,1.61325,0.09179688,1.61325,77.75572,1.61325,-48.74809,1.61325,208.6947,3.2265,44.2,3.2265,51.3,3.2265,-270.5
0.216,-1.628138E-05,1.62,-0.0480957,1.62,-0.8242188,1.62,-0.2453613,1.62,-13.40458,1.62,-22.89313,1.62,44.07634,3.24,-63.2,3.24,-120.7,3.24,11.2,0.216,-1.510643E-06,1.62,0.5336914,1.62,-1.172607,1.62,0.07324219,1.62,75.28244,1.62,-60.51908,1.62,192.8092,3.24,43.7,3.24,51.5,3.24,-268.1
0.2169,-1.879911E-05,1.62675,-0.05786133,1.62675,-0.8464355,1.62675,-0.1862793,1.62675,-15.38168,1.62675,-20.8855,1.62675,46.25191,3.2535,-63.9,3.2535,-120,3.2535,8.8,0.2169,2.081331E-05,1.62675,0.4978027,1.62675,-1.134033,1.62675,0.09326172,1.62675,70.63359,1.62675,-57.43512,1.62675,178.4427,3.2535,43.2,3.2535,51.7,3.2535,-268.1
0.2178,-3.172351E-05,1.6335,-0.05053711,1.6335,-0.875,1.6335,-0.2163086,1.6335,-14.07634,1.6335,-27.06107,1.6335,47.78626,3.267,-64.2,3.267,-120.1,3.267,9,0.2178,1.074235E-05,1.6335,0.4284668,1.6335,-1.105957,1.6335,0.1169434,1.6335,62.43512,1.6335,-54.50382,1.6335,162.2366,3.267,42.7,3.267,51.6,3.267,-267.6
0.2187,-1.611353E-05,1.64025,-0.01342773,1.64025,-0.8569336,1.64025,-0.2634277,1.64025,-15.68702,1.64025,-23.58015,1.64025,47.84733,3.2805,-65.5,3.2805,-119.9,3.2805,6.8,0.2187,5.203327E-06,1.64025,0.3813477,1.64025,-1.106934,1.64025,0.09741211,1.64025,54.65649,1.64025,-58.56488,1.64025,144.9771,3.2805,41.6,3.2805,51.6,3.2805,-269.1
0.2196,3.3402E-05,1.647,-0.01806641,1.647,-0.8552246,1.647,-0.2368164,1.647,-14.53435,1.647,-24.37405,1.647,48.70992,3.294,-66.8,3.294,-118.5,3.294,3.8,0.2196,5.035477E-06,1.647,0.364502,1.647,-1.110596,1.647,0.0715332,1.647,47.68702,1.647,-64.21374,1.647,125.9389,3.294,40.8,3.294,51.8,3.294,-270.4
0.2205,-1.846342E-06,1.65375,-0.04541016,1.65375,-0.8286133,1.65375,-0.2109375,1.65375,-14.82443,1.65375,-20.10687,1.65375,51.25191,3.3075,-68.1,3.3075,-117.2,3.3075,3,0.2205,1.913481E-05,1.65375,0.354248,1.65375,-1.094238,1.65375,0.04785156,1.65375,43.62595,1.65375,-66.48092,1.65375,109.4198,3.3075,40.1,3.3075,51.8,3.3075,-269.5
0.2214,-1.863126E-05,1.6605,-0.07470703,1.6605,-0.7897949,1.6605,-0.2412109,1.6605,-15.35878,1.6605,-24.06107,1.6605,55.19084,3.321,-68.6,3.321,-116.3,3.321,3,0.2214,-6.713969E-07,1.6605,0.3608398,1.6605,-1.046631,1.6605,0.03881836,1.6605,36.68702,1.6605,-63.0229,1.6605,89.70992,3.321,39.7,3.321,51.7,3.321,-271.4
0.2223,-4.213016E-05,1.66725,-0.08105469,1.66725,-0.8134766,1.66725,-0.2382813,1.66725,-16.64886,1.66725,-24.18321,1.66725,57.9084,3.3345,-68.1,3.3345,-116.1,3.3345,3.6,0.2223,5.874724E-06,1.66725,0.3522949,1.66725,-0.9743652,1.66725,0.02636719,1.66725,28.61832,1.66725,-60.52672,1.66725,70.55725,3.3345,39.2,3.3345,51.3,3.3345,-271.1
0.2232,-4.783703E-05,1.674,-0.1154785,1.674,-0.8085938,1.674,-0.2145996,1.674,-15.9542,1.674,-24.33588,1.674,59.75573,3.348,-68.7,3.348,-116,3.348,4.3,0.2232,1.913481E-05,1.674,0.3430176,1.674,-0.9094238,1.674,0.001708984,1.674,22.06107,1.674,-61.1832,1.674,50.80153,3.348,38.4,3.348,52,3.348,-270.8
0.2241,1.242084E-05,1.68075,-0.08349609,1.68075,-0.777832,1.68075,-0.3259277,1.68075,-16.84733,1.68075,-25.51908,1.68075,60.16794,3.3615,-68.6,3.3615,-115.3,3.3615,3.6,0.2241,1.695277E-05,1.68075,0.326416,1.68075,-0.8623047,1.68075,0.00390625,1.68075,14.68702,1.68075,-63.44275,1.68075,34.48092,3.3615,37.8,3.3615,51.7,3.3615,-271.1
0.225,5.740444E-05,1.6875,-0.1113281,1.6875,-0.7937012,1.6875,-0.2949219,1.6875,-16.61069,1.6875,-23.57252,1.6875,61.05344,3.375,-68.6,3.375,-115.4,3.375,4.5,0.225,1.326009E-05,1.6875,0.3293457,1.6875,-0.8205566,1.6875,0.02124023,1.6875,8.091603,1.6875,-66.1145,1.6875,14.77099,3.375,37.4,3.375,52.3,3.375,-268.5
0.2259,2.652018E-05,1.69425,-0.1838379,1.69425,-0.8203125,1.69425,-0.2973633,1.69425,-15.85496,1.69425,-20.58779,1.69425,62.0458,3.3885,-69.3,3.3885,-115.3,3.3885,3.6,0.2259,6.042573E-06,1.69425,0.3317871,1.69425,-0.800293,1.69425,0.006835938,1.69425,1.473282,1.69425,-72.71756,1.69425,-4.038168,3.3885,36.7,3.3885,52.1,3.3885,-267.5
0.2268,-7.888914E-06,1.701,-0.263916,1.701,-0.831543,1.701,-0.3205566,1.701,-15.63359,1.701,-22.66412,1.701,63.61069,3.402,-68.2,3.402,-115.3,3.402,4.7,0.2268,2.349889E-06,1.701,0.3557129,1.701,-0.8066406,1.701,-0.01342773,1.701,-6.709924,1.701,-77.12977,1.701,-21.48092,3.402,36.2,3.402,52,3.402,-266.7
0.2277,5.035477E-06,1.70775,-0.3557129,1.70775,-0.8022461,1.70775,-0.3369141,1.70775,-16.47328,1.70775,-24.85496,1.70775,65.32825,3.4155,-68.1,3.4155,-115.2,3.4155,4.6,0.2277,-1.174945E-06,1.70775,0.376709,1.70775,-0.8178711,1.70775,-0.02563477,1.70775,-10.94656,1.70775,-79.27481,1.70775,-35.29771,3.4155,34.9,3.4155,51.2,3.4155,-269.2
0.2286,8.392462E-06,1.7145,-0.3457031,1.7145,-0.8193359,1.7145,-0.4240723,1.7145,-19.19084,1.7145,-33.19847,1.7145,65.36641,3.429,-67.4,3.429,-115.9,3.429,3.5,0.2286,1.510643E-06,1.7145,0.4287109,1.7145,-0.8295898,1.7145,-0.01635742,1.7145,-17.73282,1.7145,-77.99236,1.7145,-50.38931,3.429,34.7,3.429,50.9,3.429,-270.2
0.2295,-3.508049E-05,1.72125,-0.3706055,1.72125,-0.8703613,1.72125,-0.2697754,1.72125,-18.66412,1.72125,-33.8855,1.72125,64.0229,3.4425,-66.6,3.4425,-117.1,3.4425,4.5,0.2295,1.359579E-05,1.72125,0.4865723,1.72125,-0.826416,1.72125,-0.02246094,1.72125,-23.35878,1.72125,-77.48855,1.72125,-63.67176,3.4425,33.9,3.4425,50.6,3.4425,-271.1
0.2304,-2.937362E-05,1.728,-0.355957,1.728,-0.8713379,1.728,-0.3862305,1.728,-18.70229,1.728,-40.13741,1.728,62.46565,3.456,-65,3.456,-117.4,3.456,6,0.2304,9.903106E-06,1.728,0.5332031,1.728,-0.8085938,1.728,-0.04394531,1.728,-29.13741,1.728,-73.85497,1.728,-74.86259,3.456,33.5,3.456,51.2,3.456,-270.2
0.2313,5.035478E-07,1.73475,-0.392334,1.73475,-0.8933105,1.73475,-0.2998047,1.73475,-14.31298,1.73475,-42.9542,1.73475,61.61069,3.4695,-63.9,3.4695,-118.5,3.4695,5.3,0.2313,1.594568E-05,1.73475,0.5732422,1.73475,-0.7990723,1.73475,-0.05761719,1.73475,-33.85496,1.73475,-69.31298,1.73475,-83.28244,3.4695,32.8,3.4695,51.1,3.4695,-271.4
0.2322,2.030976E-05,1.7415,-0.3859863,1.7415,-0.8498535,1.7415,-0.4082031,1.7415,-15.98473,1.7415,-39.05344,1.7415,61.52672,3.483,-63,3.483,-119.3,3.483,7.8,0.2322,4.49836E-05,1.7415,0.6020508,1.7415,-0.7927246,1.7415,-0.07275391,1.7415,-39.25954,1.7415,-62.93893,1.7415,-91.31298,3.483,32.3,3.483,51,3.483,-271.3
0.2331,2.534523E-05,1.74825,-0.4255371,1.74825,-0.8635254,1.74825,-0.3146973,1.74825,-13.00763,1.74825,-44.54962,1.74825,63.21374,3.4965,-61.4,3.4965,-120.7,3.4965,7.5,0.2331,2.987716E-05,1.74825,0.6345215,1.74825,-0.7937012,1.74825,-0.08691406,1.74825,-44.64122,1.74825,-54.90076,1.74825,-97.771,3.4965,31.8,3.4965,49.9,3.4965,-271.2
0.234,-1.493858E-05,1.755,-0.4204102,1.755,-0.8686523,1.755,-0.3061523,1.755,-14.34351,1.755,-47.77863,1.755,63.91603,3.51,-59.7,3.51,-121.2,3.51,9.1,0.234,1.678492E-06,1.755,0.6259766,1.755,-0.8100586,1.755,-0.08398438,1.755,-51.29008,1.755,-47.56488,1.755,-101.5802,3.51,31.6,3.51,49.7,3.51,-270.7
0.2349,-1.963836E-05,1.76175,-0.3928223,1.76175,-0.8981934,1.76175,-0.2937012,1.76175,-12.20611,1.76175,-57.35878,1.76175,64.00764,3.5235,-57.7,3.5235,-122.1,3.5235,9.1,0.2349,1.05745E-05,1.76175,0.5800781,1.76175,-0.8652344,1.76175,0.008789063,1.76175,-58.37405,1.76175,-23.60305,1.76175,-101.7252,3.5235,30.2,3.5235,49.5,3.5235,-271.3
0.2358,-1.460288E-05,1.7685,-0.3347168,1.7685,-0.9030762,1.7685,-0.3376465,1.7685,-13.01527,1.7685,-56.48855,1.7685,63.43512,3.537,-54.1,3.537,-124.9,3.537,10.1,0.2358,1.963836E-05,1.7685,0.559082,1.7685,-0.9626465,1.7685,0.09082031,1.7685,-67.53435,1.7685,-12.19847,1.7685,-100.2214,3.537,29.5,3.537,49.1,3.537,-271.1
0.2367,-2.232395E-05,1.77525,-0.3127441,1.77525,-0.9155273,1.77525,-0.255127,1.77525,-11.41221,1.77525,-59.35878,1.77525,64.771,3.5505,-51.8,3.5505,-125.6,3.5505,11.9,0.2367,-1.225299E-05,1.77525,0.362793,1.77525,-1.182373,1.77525,-0.1762695,1.77525,-74.58015,1.77525,-24.86259,1.77525,-85.38931,3.5505,29.2,3.5505,49.4,3.5505,-270.6
0.2376,-1.208515E-05,1.782,-0.2182617,1.782,-0.9365234,1.782,-0.3991699,1.782,-12.67939,1.782,-62.45038,1.782,66,3.564,-49.7,3.564,-126.3,3.564,12.1,0.2376,-6.210422E-06,1.782,-0.2641602,1.782,-1.748779,1.782,-0.2875977,1.782,-94.52672,1.782,63.16031,1.782,-48.32061,3.564,28.5,3.564,49.5,3.564,-269.8
0.2385,-7.553216E-06,1.78875,-0.1252441,1.78875,-0.984375,1.78875,-0.3168945,1.78875,-11.62595,1.78875,-60.59542,1.78875,68.56489,3.5775,-46.5,3.5775,-126.8,3.5775,12.7,0.2385,3.189135E-06,1.78875,-0.9702148,1.78875,-2,1.78875,0.2614746,1.78875,-113.5649,1.78875,228.1374,1.78875,-4.389313,3.5775,27.7,3.5775,49.2,3.5775,-271.1
0.2394,-3.692683E-05,1.7955,-0.0378418,1.7955,-1.04541,1.7955,-0.2404785,1.7955,-13.25191,1.7955,-47.45038,1.7955,72.29008,3.591,-44.3,3.591,-127.5,3.591,11.9,0.2394,-2.098116E-05,1.7955,-1.427734,1.7955,-2,1.7955,1.421387,1.7955,-105.9389,1.7955,250.1298,1.7955,30.78626,3.591,27.3,3.591,49.3,3.591,-271.3
0.2403,-2.517739E-05,1.80225,-0.0559082,1.80225,-1.01416,1.80225,-0.2038574,1.80225,-11.70229,1.80225,-34.34351,1.80225,77.51908,3.6045,-41.5,3.6045,-128.1,3.6045,13,0.2403,-1.560998E-05,1.80225,-1.287109,1.80225,-2,1.80225,1.979492,1.80225,-30.38168,1.80225,189.4275,1.80225,17.77863,3.6045,27,3.6045,48.8,3.6045,-271
0.2412,-5.438316E-05,1.809,-0.05102539,1.809,-0.986084,1.809,-0.2631836,1.809,-11.0458,1.809,-39.33588,1.809,77.63359,3.618,-38.8,3.618,-128,3.618,13.5,0.2412,1.19173E-05,1.809,-0.9555664,1.809,-1.454346,1.809,1.503174,1.809,35.40458,1.809,-156.1145,1.809,-0.4961832,3.618,26,3.618,48.6,3.618,-270.3
0.2421,-5.018692E-05,1.81575,-0.03833008,1.81575,-0.9916992,1.81575,-0.2075195,1.81575,-13.64122,1.81575,-43.09924,1.81575,75.66412,3.6315,-35.9,3.6315,-127.8,3.6315,15.7,0.2421,5.706875E-06,1.81575,-0.2685547,1.81575,-0.7424316,1.81575,0.7307129,1.81575,117.1679,1.81575,-250.1374,1.81575,-30.64122,3.6315,25.7,3.6315,48.5,3.6315,-271
0.243,-3.508049E-05,1.8225,-0.03735352,1.8225,-1.02417,1.8225,-0.09350586,1.8225,-15.33588,1.8225,-44.26717,1.8225,74.32825,3.645,-30.3,3.645,-128.2,3.645,16.3,0.243,-1.493858E-05,1.8225,0.3198242,1.8225,-0.3930664,1.8225,-0.04614258,1.8225,159.9237,1.8225,-250.1374,1.8225,-56.25191,3.645,24.4,3.645,47.2,3.645,-271.6
0.2439,-7.888914E-06,1.82925,-0.1074219,1.82925,-1.001221,1.82925,-0.2570801,1.82925,-14.63359,1.82925,-35.82443,1.82925,78.46565,3.6585,-28,3.6585,-127.5,3.6585,16.8,0.2439,-1.510643E-06,1.82925,0.5820313,1.82925,-0.3535156,1.82925,-1.137939,1.82925,113.3206,1.82925,-250.1374,1.82925,-63.45802,3.6585,23.5,3.6585,47.1,3.6585,-271.7
0.2448,-3.860533E-06,1.836,-0.2155762,1.836,-0.9436035,1.836,-0.1916504,1.836,-17.08397,1.836,-33.37405,1.836,84.37405,3.672,-25.8,3.672,-126.4,3.672,18.8,0.2448,6.54612E-06,1.836,0.670166,1.836,-0.3991699,1.836,-1.288818,1.836,-4.10687,1.836,-250.1374,1.836,-74.28244,3.672,23.2,3.672,46.9,3.672,-270.7
0.2457,-4.481575E-05,1.84275,-0.2578125,1.84275,-0.9304199,1.84275,-0.1296387,1.84275,-24.70992,1.84275,-40.40458,1.84275,89.9771,3.6855,-24.1,3.6855,-125.3,3.6855,18.8,0.2457,3.944457E-05,1.84275,0.8178711,1.84275,-0.7138672,1.84275,-0.3679199,1.84275,-122.9924,1.84275,8.106871,1.84275,-87.84733,3.6855,22.8,3.6855,46.5,3.6855,-272.4
0.2466,-5.52224E-05,1.8495,-0.2302246,1.8495,-0.987793,1.8495,-0.06713867,1.8495,-30.82443,1.8495,-51.60305,1.8495,95.71756,3.699,-22,3.699,-125.1,3.699,19.8,0.2466,1.913481E-05,1.8495,0.7050781,1.8495,-1.25415,1.8495,0.2116699,1.8495,-148.0382,1.8495,58.67176,1.8495,-93.90839,3.699,22.8,3.699,46.1,3.699,-272.5
0.2475,-5.337606E-05,1.85625,-0.1730957,1.85625,-1.053955,1.85625,-0.1137695,1.85625,-34.35115,1.85625,-58.72519,1.85625,99.8855,3.7125,-20.5,3.7125,-124.8,3.7125,19.8,0.2475,9.735257E-06,1.85625,0.440918,1.85625,-1.586914,1.85625,0.1037598,1.85625,-112.2214,1.85625,57.36641,1.85625,-89.96947,3.7125,21.7,3.7125,46.7,3.7125,-270.8
0.2484,-5.55581E-05,1.863,-0.1223145,1.863,-1.096924,1.863,-0.06933594,1.863,-36.46565,1.863,-66.35114,1.863,101.2977,3.726,-19.2,3.726,-123.8,3.726,20,0.2484,1.779202E-05,1.863,0.2226563,1.863,-1.557129,1.863,0.1242676,1.863,-71.14503,1.863,79.229,1.863,-81.84733,3.726,21,3.726,45.5,3.726,-271.8
0.2493,-5.119402E-05,1.86975,-0.1096191,1.86975,-1.125,1.86975,-0.06323242,1.86975,-39.45802,1.86975,-63.10687,1.86975,103.0534,3.7395,-17.6,3.7395,-124,3.7395,19.3,0.2493,9.903106E-06,1.86975,0.105957,1.86975,-1.275146,1.86975,0.1657715,1.86975,-18.94657,1.86975,22.94657,1.86975,-70.82442,3.7395,20.4,3.7395,45.6,3.7395,-272.6
0.2502,-5.136187E-05,1.8765,-0.1213379,1.8765,-1.14209,1.8765,-0.1206055,1.8765,-39.64122,1.8765,-60.33588,1.8765,105.7328,3.753,-17.2,3.753,-123.4,3.753,20.7,0.2502,3.860533E-06,1.8765,0.1660156,1.8765,-0.9296875,1.8765,-0.05786133,1.8765,17.16031,1.8765,-75.23664,1.8765,-60.63359,3.753,19.8,3.753,44.6,3.753,-272
0.2511,-5.287251E-05,1.88325,-0.1953125,1.88325,-1.131348,1.88325,-0.08984375,1.88325,-40.34351,1.88325,-69.03817,1.88325,108.542,3.7665,-17.5,3.7665,-122.6,3.7665,20.5,0.2511,1.05745E-05,1.88325,0.3288574,1.88325,-0.6955566,1.88325,-0.2998047,1.88325,16.39695,1.88325,-105.687,1.88325,-53.10687,3.7665,19.5,3.7665,44.4,3.7665,-274.5
0.252,-4.850843E-05,1.89,-0.1962891,1.89,-1.150146,1.89,-0.1362305,1.89,-43.39695,1.89,-89.19084,1.89,111.7252,3.78,-17.2,3.78,-122.4,3.78,20.9,0.252,-1.393149E-05,1.89,0.4672852,1.89,-0.6088867,1.89,-0.3444824,1.89,-8.351145,1.89,-78.07633,1.89,-49.59542,3.78,18,3.78,43.8,3.78,-272.5
0.2529,1.510643E-06,1.89675,-0.1586914,1.89675,-1.212158,1.89675,-0.07299805,1.89675,-45.39695,1.89675,-111.8015,1.89675,115.3435,3.7935,-17.2,3.7935,-122.7,3.7935,21.6,0.2529,-1.309224E-05,1.89675,0.5561523,1.89675,-0.5944824,1.89675,-0.2949219,1.89675,-34.14504,1.89675,-49.0916,1.89675,-48.51908,3.7935,17.8,3.7935,42.9,3.7935,-272.3
0.2538,3.3402E-05,1.9035,-0.05932617,1.9035,-1.295654,1.9035,-0.114502,1.9035,-48.03817,1.9035,-124.313,1.9035,119.0382,3.807,-18,3.807,-123.1,3.807,21.7,0.2538,7.217517E-06,1.9035,0.5744629,1.9035,-0.637207,1.9035,-0.4047852,1.9035,-38.47328,1.9035,-35.64122,1.9035,-47.0916,3.807,16.7,3.807,42.4,3.807,-272.8
0.2547,-2.635233E-05,1.91025,0.02075195,1.91025,-1.391602,1.91025,-0.1286621,1.91025,-46.93893,1.91025,-140.9389,1.91025,124.1679,3.8205,-18.6,3.8205,-123.7,3.8205,22.1,0.2547,1.560998E-05,1.91025,0.5039063,1.91025,-0.7111816,1.91025,-0.4943848,1.91025,-43.53435,1.91025,-4.679389,1.91025,-42.60305,3.8205,16.1,3.8205,41.9,3.8205,-272.9
0.2556,-1.594568E-05,1.917,0.02514648,1.917,-1.436035,1.917,-0.166748,1.917,-45.12214,1.917,-141.0458,1.917,128.3664,3.834,-20.2,3.834,-124.3,3.834,21.6,0.2556,-2.517739E-06,1.917,0.3813477,1.917,-0.8217773,1.917,-0.4130859,1.917,-53.83969,1.917,27.50382,1.917,-35.12214,3.834,15.6,3.834,41.4,3.834,-274.6
0.2565,1.896696E-05,1.92375,-0.01586914,1.92375,-1.397949,1.92375,-0.2963867,1.92375,-41.50382,1.92375,-147.5496,1.92375,128.9924,3.8475,-21.1,3.8475,-125.8,3.8475,20.5,0.2565,3.356985E-06,1.92375,0.2907715,1.92375,-0.9804688,1.92375,-0.185791,1.92375,-62.30534,1.92375,51.55725,1.92375,-28.58015,3.8475,14.6,3.8475,40.9,3.8475,-274
0.2574,9.063859E-06,1.9305,-0.04663086,1.9305,-1.306885,1.9305,-0.2504883,1.9305,-38.59542,1.9305,-169.0992,1.9305,126.9008,3.861,-21.8,3.861,-125.8,3.861,20.4,0.2574,3.541619E-05,1.9305,0.229248,1.9305,-1.100586,1.9305,-0.1130371,1.9305,-56.54962,1.9305,54.51145,1.9305,-27.27481,3.861,13.8,3.861,40.1,3.861,-275.4
0.2583,-2.030976E-05,1.93725,0.01831055,1.93725,-1.208984,1.93725,-0.1494141,1.93725,-39.60305,1.93725,-194.2443,1.93725,126.3893,3.8745,-24.2,3.8745,-124.5,3.8745,22.9,0.2583,1.409934E-05,1.93725,0.1955566,1.93725,-1.13623,1.93725,-0.1586914,1.93725,-50.93893,1.93725,64.67175,1.93725,-28.07634,3.8745,13.5,3.8745,39.6,3.8745,-274.7
0.2592,-9.231708E-06,1.944,0.08203125,1.944,-1.141357,1.944,-0.1989746,1.944,-41.13741,1.944,-194.3206,1.944,127.4046,3.888,-24.6,3.888,-122.9,3.888,25.4,0.2592,1.174945E-06,1.944,0.1796875,1.944,-1.119141,1.944,-0.1889648,1.944,-50.57252,1.944,77.38168,1.944,-28.17557,3.888,12.3,3.888,37.9,3.888,-274.3
0.2601,5.539025E-05,1.95075,0.09960938,1.95075,-1.094727,1.95075,-0.3657227,1.95075,-38.61069,1.95075,-176.9008,1.95075,124.8779,3.9015,-25.3,3.9015,-121.8,3.9015,26.8,0.2601,1.644923E-05,1.95075,0.1308594,1.95075,-1.095459,1.95075,-0.1225586,1.95075,-52.62595,1.95075,94.24428,1.95075,-27.64886,3.9015,11.9,3.9015,37.3,3.9015,-276
0.261,3.642328E-05,1.9575,0.08300781,1.9575,-1.039307,1.9575,-0.4726563,1.9575,-33.47328,1.9575,-160.8015,1.9575,119.6412,3.915,-25.7,3.915,-121.4,3.915,27.2,0.261,2.165255E-05,1.9575,0.05664063,1.9575,-1.079102,1.9575,0.07104492,1.9575,-54.40458,1.9575,94.35878,1.9575,-27.9313,3.915,11.1,3.915,36.4,3.915,-276.9
0.2619,-7.721065E-06,1.96425,-0.004150391,1.96425,-0.9206543,1.96425,-0.4763184,1.96425,-21.37405,1.96425,-139.9084,1.96425,112.8779,3.9285,-26.6,3.9285,-121.6,3.9285,27,0.2619,-3.021286E-06,1.96425,0.006835938,1.96425,-1.080322,1.96425,0.1826172,1.96425,-49.31298,1.96425,75.85497,1.96425,-30.22901,3.9285,11,3.9285,35.4,3.9285,-277.1
0.2628,-3.508049E-05,1.971,-0.08959961,1.971,-0.8447266,1.971,-0.3586426,1.971,-7.229008,1.971,-92.90839,1.971,103.3511,3.942,-27.8,3.942,-122,3.942,27.2,0.2628,3.189135E-06,1.971,-0.02148438,1.971,-1.067871,1.971,0.1601563,1.971,-38.56488,1.971,48.29008,1.971,-32.9542,3.942,10.6,3.942,33.8,3.942,-275.6
0.2637,-3.944457E-05,1.97775,-0.1188965,1.97775,-0.8100586,1.97775,-0.3049316,1.97775,-2.541985,1.97775,-14.38168,1.97775,93.07633,3.9555,-28.9,3.9555,-123.2,3.9555,26.2,0.2637,2.652018E-05,1.97775,-0.03344727,1.97775,-1.054688,1.97775,0.09277344,1.97775,-26.69466,1.97775,13.58015,1.97775,-35.54198,3.9555,10.3,3.9555,32.4,3.9555,-278.6
0.2646,-4.263371E-05,1.9845,-0.1403809,1.9845,-0.7915039,1.9845,-0.3054199,1.9845,-7.328244,1.9845,39.64885,1.9845,84.98473,3.969,-29.8,3.969,-124.3,3.969,25.7,0.2646,-7.553216E-06,1.9845,0.007080078,1.9845,-1.037354,1.9845,0.07666016,1.9845,-21.10687,1.9845,-15.54962,1.9845,-37.12977,3.969,10,3.969,31.5,3.969,-280.1
0.2655,-4.985122E-05,1.99125,-0.1645508,1.99125,-0.7585449,1.99125,-0.1342773,1.99125,-12.64886,1.99125,81.78626,1.99125,83.31298,3.9825,-30.2,3.9825,-125.3,3.9825,24.4,0.2655,3.524834E-06,1.99125,0.04516602,1.99125,-1.015869,1.99125,0.04541016,1.99125,-14.92366,1.99125,-33.35878,1.99125,-38.0916,3.9825,10.3,3.9825,29.4,3.9825,-282.3
0.2664,-4.615854E-05,1.998,-0.2700195,1.998,-0.706543,1.998,0.07910156,1.998,-13.70229,1.998,145.0763,1.998,85.68702,3.996,-30.7,3.996,-125.7,3.996,24.4,0.2664,2.769513E-05,1.998,0.08813477,1.998,-1,1.998,0.06176758,1.998,-13.34351,1.998,-40.40458,1.998,-39.12214,3.996,10.1,3.996,28.2,3.996,-282.4
0.2673,-3.004501E-05,2.00475,-0.4960938,2.00475,-0.6159668,2.00475,-0.01074219,2.00475,-10.63359,2.00475,233.6565,2.00475,85.16031,4.0095,-31.3,4.0095,-125.6,4.0095,23.7,0.2673,-1.678492E-05,2.00475,0.1047363,2.00475,-0.9929199,2.00475,0.08056641,2.00475,-8.847328,2.00475,-56.68702,2.00475,-39.19084,4.0095,9.9,4.0095,27,4.0095,-282.5
0.2682,-7.351796E-05,2.0115,-0.8266602,2.0115,-0.5063477,2.0115,-0.4887695,2.0115,-5.320611,2.0115,250.1298,2.0115,80.55725,4.023,-32,4.023,-124.7,4.023,24,0.2682,-1.275654E-05,2.0115,0.1520996,2.0115,-0.998291,2.0115,0.02832031,2.0115,-3.694656,2.0115,-73.26717,2.0115,-39.82443,4.023,9.7,4.023,26.5,4.023,-284.3
0.2691,-7.418936E-05,2.01825,-1.044434,2.01825,-0.4511719,2.01825,-1.029297,2.01825,6.526718,2.01825,250.1298,2.01825,72.90076,4.0365,-32.6,4.0365,-124.3,4.0365,26.5,0.2691,4.699778E-06,2.01825,0.15625,2.01825,-1.005371,2.01825,-0.07958984,2.01825,1.59542,2.01825,-81.26717,2.01825,-40.03053,4.0365,10.8,4.0365,26.2,4.0365,-284
0.27,-5.857939E-05,2.025,-1.259277,2.025,-0.4331055,2.025,-1.551758,2.025,29.94657,2.025,161.9542,2.025,66.72519,4.05,-34,4.05,-123.5,4.05,26.4,0.27,8.89601E-06,2.025,0.1733398,2.025,-1.016113,2.025,-0.1325684,2.025,-0.4503817,2.025,-74.0458,2.025,-39.36641,4.05,10.9,4.05,26.6,4.05,-282.3
0.2709,-2.366674E-05,2.03175,-1.461914,2.03175,-0.3601074,2.03175,-1.62793,2.03175,26.26718,2.03175,51.33588,2.03175,63.79389,4.0635,-33.9,4.0635,-123.6,4.0635,25.5,0.2709,1.493858E-05,2.03175,0.2392578,2.03175,-1.010254,2.03175,-0.1860352,2.03175,-4.229008,2.03175,-66.47328,2.03175,-38.85496,4.0635,10.7,4.0635,26.7,4.0635,-283.1
0.2718,3.860533E-06,2.0385,-1.280762,2.0385,-0.3054199,2.0385,-1.056885,2.0385,-16.22137,2.0385,-68.53435,2.0385,66.8168,4.077,-34.1,4.077,-124.1,4.077,26.2,0.2718,1.510643E-05,2.0385,0.2866211,2.0385,-1.002686,2.0385,-0.2937012,2.0385,-6.19084,2.0385,-56.21374,2.0385,-38.26717,4.077,11.8,4.077,26.7,4.077,-284.1
0.2727,3.071641E-05,2.04525,-0.8522949,2.04525,-0.3840332,2.04525,-0.456543,2.04525,-34.05344,2.04525,-188.4351,2.04525,67.76336,4.0905,-34.9,4.0905,-124.2,4.0905,25.2,0.2727,3.508049E-05,2.04525,0.3232422,2.04525,-1.007813,2.04525,-0.2949219,2.04525,-13.43511,2.04525,-36.40458,2.04525,-36.45802,4.0905,11.9,4.0905,26.4,4.0905,-283.9
0.2736,2.937362E-05,2.052,-0.3737793,2.052,-0.550293,2.052,0.07080078,2.052,-22.33588,2.052,-250.1374,2.052,56.15267,4.104,-35,4.104,-125,4.104,25.2,0.2736,3.743038E-05,2.052,0.3630371,2.052,-1.023926,2.052,-0.2353516,2.052,-18.53435,2.052,-15.42748,2.052,-34.83206,4.104,12,4.104,25.7,4.104,-285.9
0.2745,5.035477E-05,2.05875,-0.0144043,2.05875,-0.6508789,2.05875,0.3286133,2.05875,-1.48855,2.05875,-241.4198,2.05875,21.38931,4.1175,-36.2,4.1175,-125.4,4.1175,23.9,0.2745,1.342794E-05,2.05875,0.4260254,2.05875,-1.010254,2.05875,-0.1838379,2.05875,-20.76336,2.05875,1.465649,2.05875,-34.09924,4.1175,12.9,4.1175,26.2,4.1175,-287.1
0.2754,6.965744E-05,2.0655,0.07421875,2.0655,-0.5480957,2.0655,0.3481445,2.0655,17.73282,2.0655,-92.43511,2.0655,-13.78626,4.131,-36.7,4.131,-125.6,4.131,24.6,0.2754,9.735257E-06,2.0655,0.432373,2.0655,-0.9736328,2.0655,-0.1945801,2.0655,-18.72519,2.0655,17.61832,2.0655,-33.10687,4.131,13.9,4.131,28.2,4.131,-286.5
0.2763,2.836652E-05,2.07225,-0.02075195,2.07225,-0.3613281,2.07225,0.1557617,2.07225,27.90076,2.07225,31.26718,2.07225,-29.43511,4.1445,-37.5,4.1445,-125.5,4.1445,23.3,0.2763,1.661708E-05,2.07225,0.4492188,2.07225,-0.9289551,2.07225,-0.1853027,2.07225,-21.84733,2.07225,44.76336,2.07225,-31.32061,4.1445,14.2,4.1445,29.4,4.1445,-285.2
0.2772,1.05745E-05,2.079,-0.2009277,2.079,-0.1855469,2.079,-0.09985352,2.079,31.63359,2.079,82.48092,2.079,-35.89313,4.158,-38.3,4.158,-126,4.158,22.6,0.2772,6.378271E-06,2.079,0.4213867,2.079,-0.9106445,2.079,-0.199707,2.079,-25.03053,2.079,72.771,2.079,-29.29771,4.158,14.8,4.158,31.6,4.158,-284.3
0.2781,1.225299E-05,2.08575,-0.331543,2.08575,-0.1264648,2.08575,-0.2507324,2.08575,31.19084,2.08575,39.62595,2.08575,-37.9771,4.1715,-38.4,4.1715,-126,4.1715,23.3,0.2781,4.867628E-06,2.08575,0.40625,2.08575,-0.923584,2.08575,-0.1254883,2.08575,-30.38931,2.08575,97.76336,2.08575,-27.54198,4.1715,15.9,4.1715,33.4,4.1715,-283.9
0.279,-1.510643E-06,2.0925,-0.3967285,2.0925,-0.1481934,2.0925,-0.3215332,2.0925,24.62595,2.0925,-14.38931,2.0925,-43.9084,4.185,-38.9,4.185,-127.2,4.185,21.2,0.279,-2.098116E-05,2.0925,0.371582,2.0925,-0.9536133,2.0925,-0.05688477,2.0925,-30.30534,2.0925,106.7252,2.0925,-26.57252,4.185,17.4,4.185,35.3,4.185,-285.1
0.2799,-5.539025E-06,2.09925,-0.4023438,2.09925,-0.2087402,2.09925,-0.2758789,2.09925,19.19847,2.09925,-15.47328,2.09925,-53.8855,4.1985,-39.5,4.1985,-127.3,4.1985,21.4,0.2799,-1.208515E-05,2.09925,0.3278809,2.09925,-0.9921875,2.09925,-0.0378418,2.09925,-26.56489,2.09925,106.4198,2.09925,-26.35878,4.1985,18.1,4.1985,37,4.1985,-281.4
0.2808,1.460288E-05,2.106,-0.3798828,2.106,-0.2663574,2.106,-0.1955566,2.106,16.67175,2.106,22.77863,2.106,-67.29771,4.212,-39.7,4.212,-126.7,4.212,22.6,0.2808,-3.021286E-06,2.106,0.2578125,2.106,-1.01001,2.106,-0.05615234,2.106,-24.80153,2.106,100.8855,2.106,-26.58015,4.212,19.8,4.212,38.8,4.212,-281.7
0.2817,1.477073E-05,2.11275,-0.3171387,2.11275,-0.3039551,2.11275,-0.1091309,2.11275,24.08397,2.11275,42.29771,2.11275,-79.96947,4.2255,-41.2,4.2255,-126.9,4.2255,21,0.2817,1.12459E-05,2.11275,0.1853027,2.11275,-1.020264,2.11275,-0.05078125,2.11275,-24.73282,2.11275,92.9313,2.11275,-26.77863,4.2255,21.5,4.2255,40.5,4.2255,-280.2
0.2826,2.517739E-06,2.1195,-0.2504883,2.1195,-0.3027344,2.1195,-0.01928711,2.1195,37.73283,2.1195,39.48855,2.1195,-95.54198,4.239,-41.5,4.239,-126.8,4.239,19.4,0.2826,3.205921E-05,2.1195,0.1293945,2.1195,-1.037842,2.1195,-0.03442383,2.1195,-22.06107,2.1195,79.48855,2.1195,-26.74809,4.239,25.3,4.239,44.9,4.239,-277.1
0.2835,4.36408E-06,2.12625,-0.213623,2.12625,-0.2927246,2.12625,-0.01245117,2.12625,45.28244,2.12625,54.09924,2.12625,-110.3359,4.2525,-42,4.2525,-127.3,4.2525,21.6,0.2835,4.028382E-06,2.12625,0.06640625,2.12625,-1.049561,2.12625,-0.007324219,2.12625,-15.54198,2.12625,60.91603,2.12625,-26.68702,4.2525,27.5,4.2525,46.3,4.2525,-275.9
0.2844,2.131685E-05,2.133,-0.1516113,2.133,-0.2941895,2.133,-0.1240234,2.133,48.68702,2.133,99.61832,2.133,-124.8168,4.266,-42.8,4.266,-127.2,4.266,19.3,0.2844,5.035477E-06,2.133,0.0144043,2.133,-1.062012,2.133,0.01855469,2.133,-8.954199,2.133,44.85496,2.133,-25.53435,4.266,30.2,4.266,47.9,4.266,-274.9
0.2853,3.978027E-05,2.13975,-0.1630859,2.13975,-0.3046875,2.13975,-0.2492676,2.13975,48.34351,2.13975,136.626,2.13975,-133.6412,4.2795,-43.5,4.2795,-127.2,4.2795,20.1,0.2853,2.803082E-05,2.13975,-0.04443359,2.13975,-1.038086,2.13975,0.01318359,2.13975,-4.755725,2.13975,19.22137,2.13975,-23.98473,4.2795,32.7,4.2795,48.7,4.2795,-276.2
0.2862,1.863126E-05,2.1465,-0.2519531,2.1465,-0.3105469,2.1465,-0.2746582,2.1465,48.54962,2.1465,135.8168,2.1465,-141.9542,4.293,-43.9,4.293,-127.4,4.293,19.4,0.2862,1.695277E-05,2.1465,-0.02001953,2.1465,-1.018799,2.1465,-0.02392578,2.1465,-3.633588,2.1465,-4.282443,2.1465,-23.29008,4.293,34.8,4.293,49.5,4.293,-275.9
0.2871,1.326009E-05,2.15325,-0.3769531,2.15325,-0.3005371,2.15325,-0.2312012,2.15325,50.35878,2.15325,120.1221,2.15325,-153.4427,4.3065,-44.4,4.3065,-127.8,4.3065,18.6,0.2871,-1.007096E-06,2.15325,0.02758789,2.15325,-0.9916992,2.15325,-0.09130859,2.15325,1.305344,2.15325,-26.33588,2.15325,-24.24427,4.3065,37.6,4.3065,49.9,4.3065,-274.6
0.288,2.786297E-05,2.16,-0.4460449,2.16,-0.3093262,2.16,-0.177002,2.16,52.52672,2.16,111.9466,2.16,-165.2824,4.32,-44.8,4.32,-127.8,4.32,18.4,0.288,1.443503E-05,2.16,0.1157227,2.16,-0.9667969,2.16,-0.1950684,2.16,4.496183,2.16,-31.9771,2.16,-25.15267,4.32,40.2,4.32,50.1,4.32,-275.2
0.2889,3.877318E-05,2.16675,-0.4614258,2.16675,-0.3293457,2.16675,-0.1403809,2.16675,54.68702,2.16675,108.6107,2.16675,-178.0611,4.3335,-45.6,4.3335,-127.7,4.3335,18.5,0.2889,3.155566E-05,2.16675,0.1870117,2.16675,-0.9326172,2.16675,-0.2775879,2.16675,1.59542,2.16675,-27.77099,2.16675,-24.42748,4.3335,42.1,4.3335,49.9,4.3335,-275.4
0.2898,1.829557E-05,2.1735,-0.4609375,2.1735,-0.3781738,2.1735,-0.1245117,2.1735,58.16794,2.1735,108.2519,2.1735,-187.8473,4.347,-46.7,4.347,-127.4,4.347,16.3,0.2898,-9.399557E-06,2.1735,0.2414551,2.1735,-0.9172363,2.1735,-0.2128906,2.1735,-4.793893,2.1735,-15.9084,2.1735,-22.25954,4.347,45,4.347,49.7,4.347,-275
0.2907,1.779202E-05,2.18025,-0.4741211,2.18025,-0.4116211,2.18025,-0.1953125,2.18025,62.66412,2.18025,107.2977,2.18025,-196.9084,4.3605,-47.5,4.3605,-127.7,4.3605,17.5,0.2907,-1.678492E-07,2.18025,0.3183594,2.18025,-0.9077148,2.18025,-0.1523438,2.18025,-7.832061,2.18025,-11.49618,2.18025,-21.74046,4.3605,48.5,4.3605,49.6,4.3605,-274.8
0.2916,2.131685E-05,2.187,-0.4831543,2.187,-0.4204102,2.187,-0.2785645,2.187,65.79389,2.187,97.90076,2.187,-205.1908,4.374,-48.3,4.374,-127.7,4.374,15.3,0.2916,3.440909E-05,2.187,0.3356934,2.187,-0.916748,2.187,-0.1408691,2.187,-7.977099,2.187,-5.206107,2.187,-22.19847,4.374,50.2,4.374,49.6,4.374,-274.7
0.2925,-8.392462E-07,2.19375,-0.496582,2.19375,-0.4436035,2.19375,-0.3110352,2.19375,67.44275,2.19375,78.48092,2.19375,-215.3817,4.3875,-48.6,4.3875,-128,4.3875,15.7,0.2925,1.728847E-05,2.19375,0.3505859,2.19375,-0.9299316,2.19375,-0.119873,2.19375,-8.977099,2.19375,3.946565,2.19375,-24.92366,4.3875,50.9,4.3875,49.8,4.3875,-274.6
0.2934,3.205921E-05,2.2005,-0.5144043,2.2005,-0.4602051,2.2005,-0.2446289,2.2005,66.68702,2.2005,65.16031,2.2005,-225.145,4.401,-49.1,4.401,-127.8,4.401,14.1,0.2934,1.02388E-05,2.2005,0.2880859,2.2005,-0.9619141,2.2005,-0.1333008,2.2005,-8.083969,2.2005,10.79389,2.2005,-27.67175,4.401,51.5,4.401,48.8,4.401,-273.2
0.2943,4.59907E-05,2.20725,-0.5317383,2.20725,-0.5021973,2.20725,-0.1914063,2.20725,66.32061,2.20725,63.94656,2.20725,-234.3359,4.4145,-49.9,4.4145,-126.9,4.4145,15.2,0.2943,1.05745E-05,2.20725,0.2114258,2.20725,-1.012695,2.20725,-0.05322266,2.20725,-8.816793,2.20725,19.03817,2.20725,-27.35114,4.4145,51.9,4.4145,49.7,4.4145,-273.2
0.2952,-1.426719E-05,2.214,-0.5456543,2.214,-0.5715332,2.214,-0.1516113,2.214,69.0458,2.214,65.74046,2.214,-240.5725,4.428,-51.1,4.428,-127,4.428,13.9,0.2952,1.510643E-05,2.214,0.121582,2.214,-1.052734,2.214,0.04272461,2.214,-8.541985,2.214,7.519084,2.214,-25.75573,4.428,52,4.428,49.8,4.428,-272
0.2961,-1.896696E-05,2.22075,-0.5634766,2.22075,-0.6518555,2.22075,-0.1674805,2.22075,75,2.22075,67.25954,2.22075,-247.5267,4.4415,-50.9,4.4415,-127.6,4.4415,13.4,0.2961,9.063859E-06,2.22075,0.0859375,2.22075,-1.090576,2.22075,-0.01660156,2.22075,-2.229008,2.22075,0.8091603,2.22075,-24.27481,4.4415,52.2,4.4415,50.6,4.4415,-271.1
0.297,-1.544213E-05,2.2275,-0.5947266,2.2275,-0.720459,2.2275,-0.2236328,2.2275,82.0458,2.2275,67.67939,2.2275,-250.1374,4.455,-52.7,4.455,-128.1,4.455,12,0.297,-2.18204E-06,2.2275,0.1308594,2.2275,-1.046631,2.2275,-0.119873,2.2275,2.328244,2.2275,-14.68702,2.2275,-21.34351,4.455,52.4,4.455,50.8,4.455,-270.5
0.2979,-3.239491E-05,2.23425,-0.6428223,2.23425,-0.776123,2.23425,-0.2827148,2.23425,85.03053,2.23425,55.41221,2.23425,-250.1374,4.4685,-53.5,4.4685,-127.5,4.4685,12.4,0.2979,-5.203327E-06,2.23425,0.1787109,2.23425,-1.018311,2.23425,-0.107666,2.23425,1.076336,2.23425,-22.31298,2.23425,-21.35878,4.4685,52.3,4.4685,50.2,4.4685,-268.2
0.2988,-6.630045E-05,2.241,-0.7099609,2.241,-0.8342285,2.241,-0.2902832,2.241,83.38931,2.241,44.67176,2.241,-250.1374,4.482,-54.2,4.482,-127.8,4.482,12.1,0.2988,1.829557E-05,2.241,0.2475586,2.241,-0.9968262,2.241,-0.07348633,2.241,0.5343512,2.241,-20.58779,2.241,-23.84733,4.482,51.1,4.482,50.6,4.482,-268.1
0.2997,-7.267872E-05,2.24775,-0.7558594,2.24775,-0.8745117,2.24775,-0.28125,2.24775,84.25191,2.24775,27.60305,2.24775,-250.1374,4.4955,-54.8,4.4955,-127.4,4.4955,11.2,0.2997,2.954147E-05,2.24775,0.2958984,2.24775,-1.006592,2.24775,-0.07226563,2.24775,0.129771,2.24775,-13.77099,2.24775,-25.49618,4.4955,50,4.4955,51.4,4.4955,-266.5
0.3006,-4.414435E-05,2.2545,-0.7670898,2.2545,-0.9145508,2.2545,-0.2451172,2.2545,82.39695,2.2545,6.076336,2.2545,-250.1374,4.509,-55.3,4.509,-126.9,4.509,10,0.3006,1.393149E-05,2.2545,0.3193359,2.2545,-0.9941406,2.2545,-0.01513672,2.2545,-0.351145,2.2545,-10.93893,2.2545,-26.55725,4.509,48.2,4.509,51.5,4.509,-266.5
0.3015,-5.55581E-05,2.26125,-0.7033691,2.26125,-0.920166,2.26125,-0.2224121,2.26125,81.29008,2.26125,-4.633588,2.26125,-250.1374,4.5225,-55.6,4.5225,-126.9,4.5225,9.6,0.3015,1.594568E-05,2.26125,0.2746582,2.26125,-0.998291,2.26125,-0.07568359,2.26125,0.1755725,2.26125,-0.7099237,2.26125,-26.20611,4.5225,47.6,4.5225,51.8,4.5225,-266.9
0.3024,-3.608759E-05,2.268,-0.59375,2.268,-0.8967285,2.268,-0.2397461,2.268,82.8168,2.268,-7.427481,2.268,-250.1374,4.536,-56.9,4.536,-126.9,4.536,7.7,0.3024,7.049668E-06,2.268,0.1977539,2.268,-0.9943848,2.268,-0.1210938,2.268,-1.847328,2.268,3.969466,2.268,-25.56489,4.536,47.8,4.536,51.8,4.536,-268.8
0.3033,-5.539025E-06,2.27475,-0.4484863,2.27475,-0.8942871,2.27475,-0.2612305,2.27475,80.74809,2.27475,-3.770992,2.27475,-250.1374,4.5495,-57.8,4.5495,-126.1,4.5495,8.1,0.3033,3.524834E-06,2.27475,0.1679688,2.27475,-0.996582,2.27475,-0.09545898,2.27475,-1.748092,2.27475,7.267176,2.27475,-26.17557,4.5495,47.8,4.5495,51.9,4.5495,-269.5
0.3042,-4.531929E-06,2.2815,-0.3427734,2.2815,-0.9414063,2.2815,-0.28125,2.2815,78.89313,2.2815,10.17557,2.2815,-250.1374,4.563,-58,4.563,-126.3,4.563,5.8,0.3042,1.007096E-06,2.2815,0.1992188,2.2815,-0.9829102,2.2815,-0.06689453,2.2815,-2.274809,2.2815,0.9923664,2.2815,-29,4.563,46.9,4.563,52.5,4.563,-268.2
0.3051,-4.36408E-05,2.28825,-0.2651367,2.28825,-0.9748535,2.28825,-0.2827148,2.28825,81.83206,2.28825,25.16794,2.28825,-250.1374,4.5765,-59.8,4.5765,-125.4,4.5765,4.7,0.3051,-2.18204E-06,2.28825,0.2067871,2.28825,-0.9648438,2.28825,-0.1125488,2.28825,-1.122137,2.28825,7.923664,2.28825,-31.65649,4.5765,46.1,4.5765,52.9,4.5765,-265.1
0.306,-3.256276E-05,2.295,-0.2490234,2.295,-0.9907227,2.295,-0.2219238,2.295,84.43511,2.295,38.32824,2.295,-250.1374,4.59,-60.7,4.59,-124.5,4.59,4.2,0.306,-1.829557E-05,2.295,0.1931152,2.295,-0.9594727,2.295,-0.09594727,2.295,-4.328244,2.295,15.05344,2.295,-33.78626,4.59,44.9,4.59,52.6,4.59,-264.7
0.3069,4.028382E-06,2.30175,-0.3015137,2.30175,-1.024658,2.30175,-0.2172852,2.30175,86.42748,2.30175,56.67939,2.30175,-250.1374,4.6035,-61.6,4.6035,-124.2,4.6035,2.8,0.3069,-8.224613E-06,2.30175,0.1696777,2.30175,-0.9716797,2.30175,-0.1027832,2.30175,-5.70229,2.30175,19.1145,2.30175,-35.38168,4.6035,43.2,4.6035,52.6,4.6035,-262.5
0.3078,-3.877318E-05,2.3085,-0.3669434,2.3085,-1.058594,2.3085,-0.2717285,2.3085,87.55725,2.3085,68.48092,2.3085,-250.1374,4.617,-62.4,4.617,-123.7,4.617,1.7,0.3078,-5.874724E-06,2.3085,0.1452637,2.3085,-0.9733887,2.3085,-0.07226563,2.3085,-7.824428,2.3085,21.74046,2.3085,-36.90076,4.617,42.1,4.617,52.2,4.617,-264
0.3087,-0.0001099413,2.31525,-0.4245605,2.31525,-1.116211,2.31525,-0.3078613,2.31525,81.771,2.31525,71.25954,2.31525,-250.1374,4.6305,-62.9,4.6305,-123.1,4.6305,1.2,0.3087,-2.836652E-05,2.31525,0.1308594,2.31525,-0.9575195,2.31525,-0.05126953,2.31525,-7.778626,2.31525,24.34351,2.31525,-38.60305,4.6305,41.5,4.6305,52.7,4.6305,-260.5
0.3096,-6.059357E-05,2.322,-0.4855957,2.322,-1.177246,2.322,-0.3166504,2.322,78.22137,2.322,66.34351,2.322,-244.9466,4.644,-63.9,4.644,-122.8,4.644,0.3,0.3096,-1.644923E-05,2.322,0.1403809,2.322,-0.9914551,2.322,-0.06591797,2.322,-10.25954,2.322,23.32825,2.322,-41.98473,4.644,41.7,4.644,52.7,4.644,-261.4
0.3105,-6.210422E-06,2.32875,-0.4846191,2.32875,-1.189697,2.32875,-0.2998047,2.32875,76.65649,2.32875,54.15267,2.32875,-231.0305,4.6575,-64.8,4.6575,-122.4,4.6575,-1.1,0.3105,2.433814E-05,2.32875,0.1669922,2.32875,-1.001221,2.32875,-0.03979492,2.32875,-9.038168,2.32875,24.0229,2.32875,-46,4.6575,40.6,4.6575,53.1,4.6575,-261.6
0.3114,-2.786297E-05,2.3355,-0.4162598,2.3355,-1.159668,2.3355,-0.2041016,2.3355,68.43511,2.3355,40.03053,2.3355,-213.6412,4.671,-65.3,4.671,-121.5,4.671,-1.7,0.3114,6.71397E-06,2.3355,0.1730957,2.3355,-1.008545,2.3355,-0.03881836,2.3355,-9.244275,2.3355,25.94657,2.3355,-48.62595,4.671,39.7,4.671,52.9,4.671,-259.9
0.3123,-5.136187E-05,2.34225,-0.3388672,2.34225,-1.125732,2.34225,-0.1420898,2.34225,60.9771,2.34225,45.35115,2.34225,-197.9466,4.6845,-66.3,4.6845,-120.7,4.6845,-3,0.3123,3.189135E-06,2.34225,0.1660156,2.34225,-1.021729,2.34225,-0.05566406,2.34225,-9.175572,2.34225,28.16794,2.34225,-49.35878,4.6845,38.6,4.6845,52.1,4.6845,-261.6
0.3132,-2.937362E-05,2.349,-0.3098145,2.349,-1.092285,2.349,-0.1445313,2.349,55.10687,2.349,57.84733,2.349,-184.626,4.698,-67.7,4.698,-118.7,4.698,-4.5,0.3132,3.575189E-05,2.349,0.1577148,2.349,-1.038574,2.349,-0.1013184,2.349,-9.473283,2.349,30.48855,2.349,-49.06107,4.698,38.3,4.698,52.7,4.698,-260.6
0.3141,2.517739E-05,2.35575,-0.3249512,2.35575,-1.071289,2.35575,-0.1633301,2.35575,49.07634,2.35575,65.70229,2.35575,-172.7328,4.7115,-68,4.7115,-117.8,4.7115,-6.1,0.3141,2.937362E-05,2.35575,0.1865234,2.35575,-1.052002,2.35575,-0.08569336,2.35575,-9.770992,2.35575,26.78626,2.35575,-49.75573,4.7115,37.3,4.7115,52.8,4.7115,-261.1
0.315,2.668803E-05,2.3625,-0.3723145,2.3625,-1.011475,2.3625,-0.2001953,2.3625,41.99237,2.3625,72.80916,2.3625,-157.2672,4.725,-68.9,4.725,-116.6,4.725,-5,0.315,-2.853437E-06,2.3625,0.2312012,2.3625,-1.025146,2.3625,-0.1496582,2.3625,-10.21374,2.3625,26.80153,2.3625,-52.07634,4.725,36.8,4.725,52.8,4.725,-260.5
0.3159,2.668803E-05,2.36925,-0.4160156,2.36925,-0.920166,2.36925,-0.2714844,2.36925,36.38168,2.36925,75.21374,2.36925,-138.7099,4.7385,-68.4,4.7385,-116.6,4.7385,-5,0.3159,-5.539025E-06,2.36925,0.2839355,2.36925,-1.022217,2.36925,-0.1357422,2.36925,-11.09924,2.36925,26.81679,2.36925,-54.69466,4.7385,36.5,4.7385,52.3,4.7385,-261.1
0.3168,2.836652E-05,2.376,-0.4648438,2.376,-0.8278809,2.376,-0.2658691,2.376,24.70992,2.376,66.86259,2.376,-117.8015,4.752,-68.9,4.752,-116.4,4.752,-4.7,0.3168,-7.385367E-06,2.376,0.3132324,2.376,-1.037109,2.376,-0.0715332,2.376,-12.70992,2.376,29.30534,2.376,-57.0687,4.752,35.4,4.752,52.4,4.752,-260.3
0.3177,2.18204E-06,2.38275,-0.4716797,2.38275,-0.7729492,2.38275,-0.2646484,2.38275,13.10687,2.38275,59.48855,2.38275,-97.62595,4.7655,-69.4,4.7655,-116.1,4.7655,-4.1,0.3177,1.208515E-05,2.38275,0.3051758,2.38275,-1.070801,2.38275,-0.08520508,2.38275,-12.37405,2.38275,35.9084,2.38275,-58.29008,4.7655,35,4.7655,52.3,4.7655,-259.7
0.3186,1.141375E-05,2.3895,-0.4658203,2.3895,-0.7421875,2.3895,-0.2443848,2.3895,3.59542,2.3895,59.10687,2.3895,-72.23664,4.779,-69.5,4.779,-116,4.779,-2,0.3186,3.356985E-07,2.3895,0.2780762,2.3895,-1.067383,2.3895,-0.1196289,2.3895,-12.96183,2.3895,37.70992,2.3895,-59.46565,4.779,33.9,4.779,52.1,4.779,-259.1
0.3195,2.937362E-05,2.39625,-0.4460449,2.39625,-0.7487793,2.39625,-0.2424316,2.39625,-4.465649,2.39625,64.57252,2.39625,-47.1145,4.7925,-69.3,4.7925,-115.7,4.7925,-2.2,0.3195,-2.081331E-05,2.39625,0.2546387,2.39625,-1.08667,2.39625,-0.08642578,2.39625,-12.64886,2.39625,36.8855,2.39625,-61.71756,4.7925,33.4,4.7925,52.2,4.7925,-258.5
0.3204,3.356985E-07,2.403,-0.4428711,2.403,-0.7619629,2.403,-0.2609863,2.403,-7.687023,2.403,68.0229,2.403,-23.30534,4.806,-69.5,4.806,-114.7,4.806,-4,0.3204,-7.553216E-06,2.403,0.2473145,2.403,-1.077637,2.403,-0.06591797,2.403,-12.18321,2.403,33.69466,2.403,-65.16031,4.806,33,4.806,51.8,4.806,-258.8
0.3213,-2.014191E-06,2.40975,-0.4675293,2.40975,-0.7458496,2.40975,-0.2695313,2.40975,-10.23664,2.40975,67.87023,2.40975,-3.78626,4.8195,-68.5,4.8195,-115.1,4.8195,-5.2,0.3213,4.867628E-06,2.40975,0.2536621,2.40975,-1.071289,2.40975,-0.1520996,2.40975,-10.82443,2.40975,33.78626,2.40975,-67.79389,4.8195,32.8,4.8195,52,4.8195,-258.7
0.3222,-6.109712E-05,2.4165,-0.505127,2.4165,-0.6901855,2.4165,-0.2868652,2.4165,-16.43511,2.4165,67.64886,2.4165,17.61069,4.833,-67.9,4.833,-115.1,4.833,-6,0.3222,-1.09102E-05,2.4165,0.2712402,2.4165,-1.066406,2.4165,-0.08203125,2.4165,-11.61832,2.4165,29.54198,2.4165,-69.66412,4.833,32.7,4.833,52.3,4.833,-258.6
0.3231,-8.661021E-05,2.42325,-0.5415039,2.42325,-0.6235352,2.42325,-0.2961426,2.42325,-24.48855,2.42325,65.87786,2.42325,37.25954,4.8465,-67,4.8465,-115.7,4.8465,-6.1,0.3231,-5.874724E-06,2.42325,0.2858887,2.42325,-1.078613,2.42325,-0.1005859,2.42325,-10.0687,2.42325,33.72519,2.42325,-71.43511,4.8465,31.7,4.8465,51.3,4.8465,-259
0.324,-5.824368E-05,2.43,-0.5778809,2.43,-0.5859375,2.43,-0.3076172,2.43,-34.86259,2.43,62.0916,2.43,55.42748,4.86,-66.3,4.86,-116.6,4.86,-6.4,0.324,4.36408E-06,2.43,0.2631836,2.43,-1.09668,2.43,-0.1000977,2.43,-10.33588,2.43,36.40458,2.43,-72.96947,4.86,31.1,4.86,50.8,4.86,-260.7
0.3249,-3.054856E-05,2.43675,-0.6020508,2.43675,-0.5935059,2.43675,-0.3435059,2.43675,-44.98473,2.43675,59.82443,2.43675,71.58015,4.8735,-65.1,4.8735,-117.6,4.8735,-6.1,0.3249,-3.021286E-06,2.43675,0.2856445,2.43675,-1.098877,2.43675,-0.04174805,2.43675,-11.32824,2.43675,34.23664,2.43675,-76.26717,4.8735,30.3,4.8735,50.6,4.8735,-261.7
0.3258,-2.903792E-05,2.4435,-0.6271973,2.4435,-0.6159668,2.4435,-0.3439941,2.4435,-51.43512,2.4435,57.16794,2.4435,83.82442,4.887,-64,4.887,-118.6,4.887,-5.6,0.3258,5.035477E-06,2.4435,0.2897949,2.4435,-1.047852,2.4435,0.05664063,2.4435,-10.25191,2.4435,37.71756,2.4435,-78.69466,4.887,30.2,4.887,50.8,4.887,-260.9
0.3267,-2.601663E-05,2.45025,-0.6425781,2.45025,-0.6689453,2.45025,-0.3361816,2.45025,-59.73283,2.45025,46.0916,2.45025,94.49619,4.9005,-62.7,4.9005,-119.6,4.9005,-4.9,0.3267,2.098116E-05,2.45025,0.2404785,2.45025,-1.005127,2.45025,-0.1469727,2.45025,-12.35114,2.45025,47.00763,2.45025,-81.71756,4.9005,29.9,4.9005,51.1,4.9005,-262
0.3276,6.210422E-06,2.457,-0.5871582,2.457,-0.7814941,2.457,-0.1777344,2.457,-74.26717,2.457,11.41221,2.457,101.9466,4.914,-61,4.914,-121.2,4.914,-3.5,0.3276,1.292439E-05,2.457,0.2116699,2.457,-1.023926,2.457,-0.06298828,2.457,-17.42748,2.457,41.32824,2.457,-84.62595,4.914,29.8,4.914,50.4,4.914,-261.2
0.3285,-2.853437E-06,2.46375,-0.4594727,2.46375,-1.104004,2.46375,0.002685547,2.46375,-103.0534,2.46375,-27.47328,2.46375,104.1985,4.9275,-57,4.9275,-124.2,4.9275,-1.7,0.3285,1.594568E-05,2.46375,0.1967773,2.46375,-1.068604,2.46375,0.03540039,2.46375,-20.38168,2.46375,41.80916,2.46375,-89.38931,4.9275,29.4,4.9275,50.8,4.9275,-262.3
0.3294,-8.224613E-06,2.4705,-0.1047363,2.4705,-1.673584,2.4705,0.1391602,2.4705,-138.1145,2.4705,-91.48855,2.4705,94.46565,4.941,-54.9,4.941,-125.3,4.941,-0.8,0.3294,4.145876E-05,2.4705,0.1462402,2.4705,-1.101318,2.4705,-0.02539063,2.4705,-19.14504,2.4705,42.91603,2.4705,-92.93893,4.941,28.8,4.941,50.6,4.941,-261.5
0.3303,-2.635233E-05,2.47725,0.7375488,2.47725,-2,2.47725,0.7653809,2.47725,-141.4275,2.47725,-250.1374,2.47725,54.0916,4.9545,-53,4.9545,-125.7,4.9545,0.8,0.3303,2.131685E-05,2.47725,0.07592773,2.47725,-1.154541,2.47725,-0.06933594,2.47725,-20.22137,2.47725,45.96947,2.47725,-95.32825,4.9545,28.1,4.9545,50.4,4.9545,-262.7
0.3312,5.035478E-07,2.484,1.219971,2.484,-2,2.484,1.999939,2.484,-70.62595,2.484,-250.1374,2.484,4.633588,4.968,-50.7,4.968,-126.9,4.968,2.4,0.3312,1.174945E-06,2.484,-0.04296875,2.484,-1.210693,2.484,-0.002441406,2.484,-21.9084,2.484,45.23664,2.484,-98.83969,4.968,27.2,4.968,50,4.968,-263.4
0.3321,3.37377E-05,2.49075,1.161865,2.49075,-2,2.49075,1.916748,2.49075,25.25954,2.49075,-188.3282,2.49075,6.473282,4.9815,-47.5,4.9815,-127.8,4.9815,3.3,0.3321,1.460288E-05,2.49075,-0.07128906,2.49075,-1.223145,2.49075,-0.08886719,2.49075,-24.0458,2.49075,30.65649,2.49075,-104.6412,4.9815,26.9,4.9815,49.7,4.9815,-260.9
0.333,1.745632E-05,2.4975,0.7751465,2.4975,-1.30835,2.4975,0.753418,2.4975,35.06107,2.4975,250.1298,2.4975,25.16031,4.995,-45,4.995,-129,4.995,5.5,0.333,3.793393E-05,2.4975,-0.005615234,2.4975,-1.21582,2.4975,-0.1044922,2.4975,-24.55725,2.4975,13.38931,2.4975,-108.2824,4.995,26.1,4.995,49.7,4.995,-262.1
0.3339,-3.659113E-05,2.50425,0.2514648,2.50425,-0.7470703,2.50425,-0.01220703,2.50425,41.09924,2.50425,250.1298,2.50425,49.13741,5.0085,-41.7,5.0085,-129.4,5.0085,6.7,0.3339,8.89601E-06,2.50425,0.1193848,2.50425,-1.201904,2.50425,-0.02172852,2.50425,-29.29008,2.50425,16.09924,2.50425,-110.3435,5.0085,26.1,5.0085,49.6,5.0085,-262.2
0.3348,-2.534523E-05,2.511,-0.420166,2.511,-0.46875,2.511,-0.1794434,2.511,49.50382,2.511,229.9542,2.511,82.00764,5.022,-38.5,5.022,-130.1,5.022,5.1,0.3348,-1.947051E-05,2.511,0.1660156,2.511,-1.220459,2.511,0.02612305,2.511,-34.22137,2.511,26.29008,2.511,-110.6718,5.022,26.3,5.022,49.4,5.022,-263.6
0.3357,-2.349889E-05,2.51775,-0.7719727,2.51775,-0.3674316,2.51775,-0.3950195,2.51775,19.58779,2.51775,250.1298,2.51775,95.01527,5.0355,-35.8,5.0355,-130,5.0355,7.2,0.3357,1.544213E-05,2.51775,0.2299805,2.51775,-1.246826,2.51775,0.06201172,2.51775,-39.14504,2.51775,30.06107,2.51775,-110.6718,5.0355,25.5,5.0355,49.5,5.0355,-263
0.3366,-2.970932E-05,2.5245,-0.8537598,2.5245,-0.4594727,2.5245,-0.6643066,2.5245,-13.77863,2.5245,250.1298,2.5245,100.4657,5.049,-30,5.049,-130.1,5.049,10,0.3366,-4.36408E-06,2.5245,0.3129883,2.5245,-1.242432,2.5245,-0.01611328,2.5245,-42.61832,2.5245,36.85496,2.5245,-113.4351,5.049,24.6,5.049,48.5,5.049,-263.4
0.3375,-2.165255E-05,2.53125,-0.8500977,2.53125,-0.6872559,2.53125,-0.7133789,2.53125,-45.01527,2.53125,87.64122,2.53125,113.5725,5.0625,-27.3,5.0625,-129.6,5.0625,10.9,0.3375,-3.860533E-06,2.53125,0.3669434,2.53125,-1.229248,2.53125,0.05126953,2.53125,-47.17557,2.53125,42.78626,2.53125,-117.7634,5.0625,23.7,5.0625,48.3,5.0625,-261.6
